delay,freq,condition,trials.thisRepN,trials.thisTrialN,trials.thisN,trials.thisIndex,thisRow.t,notes,trial.started,polygon.started,polygon_2.started,key_resp.started,polygon.stopped,trial.stopped,key_resp.keys,key_resp.rt,key_resp.duration,beep.started,sound_1.started,sound_1.stopped,beep.stopped,response.started,text.started,textbox.started,button.started,response.stopped,textbox.text,button.numClicks,button.timesOn,button.timesOff,participant,session,date,expName,psychopyVersion,frameRate,expStart,
0.4,1000,exp,0,0,0,4,0.024719599867239594,,0.018445099936798215,0.024719599867239594,1.0087889998685569,1.0087889998685569,1.0250611000228673,9.216592299984768,space,8.08526930003427,None,9.219029099913314,9.620926666601251,9.940381299937144,9.92208159994334,9.922164299990982,9.940381299937144,9.940381299937144,9.940381299937144,12.50698469998315,500,1,[2.5821883999742568],[2.582204799866304],365031,001,2024-11-13_13h55.48.200,IntentionalBindingExperiment,2024.1.5,None,2024-11-13 13h55.54.650827 +0530,
0.1,400,unexp,0,1,1,0,12.521138499956578,,12.509281300008297,12.521138499956578,13.52199999988079,13.52199999988079,13.52199999988079,17.428148000035435,space,3.8916648000013083,None,17.429052299819887,17.54309436661812,17.854546800022945,17.838852599961683,17.83888809988275,17.854546800022945,17.854546800022945,17.854546800022945,20.04778529983014,200,1,[2.206783999921754],[2.2067988999187946],365031,001,2024-11-13_13h55.48.200,IntentionalBindingExperiment,2024.1.5,None,2024-11-13 13h55.54.650827 +0530,
0.4,1000,exp,0,2,2,7,20.062877499964088,,20.04917569993995,20.062877499964088,21.064453899860382,21.064453899860382,21.064453899860382,21.51579670002684,space,0.4427614000160247,None,21.516450699884444,21.931578166612113,22.24505289993249,22.228926099836826,22.228952399920672,22.24505289993249,22.24505289993249,22.24505289993249,27.890675999922678,400,1,[5.659865099936724],[5.6598815999459475],365031,001,2024-11-13_13h55.48.200,IntentionalBindingExperiment,2024.1.5,None,2024-11-13 13h55.54.650827 +0530,
0.7,400,unexp,0,3,3,2,27.905312899965793,,27.893136699916795,27.905312899965793,28.906491399975494,28.906491399975494,28.906491399975494,29.342228499939665,space,0.4316841000691056,None,29.342852599918842,30.057302066652724,30.3731616998557,30.359361399896443,30.35939639993012,30.3731616998557,30.3731616998557,30.3731616998557,35.64877810003236,300,1,[5.2876409001182765],[5.2876510000787675],365031,001,2024-11-13_13h55.48.200,IntentionalBindingExperiment,2024.1.5,None,2024-11-13 13h55.54.650827 +0530,
0.4,400,unexp,0,4,4,1,35.663687699940056,,35.650072399992496,35.663687699940056,36.664052499923855,36.664052499923855,36.664052499923855,37.14923189999536,space,0.4802983000408858,None,37.14980029989965,37.54918336664947,37.86325279995799,37.84895489993505,37.848992199869826,37.86325279995799,37.86325279995799,37.86325279995799,41.17202719999477,300,1,[3.3205766000319272],[3.3205917000304908],365031,001,2024-11-13_13h55.48.200,IntentionalBindingExperiment,2024.1.5,None,2024-11-13 13h55.54.650827 +0530,
0.7,1000,exp,0,5,5,11,41.18580109998584,,41.1734509000089,41.18580109998584,42.18687379988842,42.18687379988842,42.18687379988842,43.473327100044116,space,1.2810271000489593,None,43.47405550000258,44.189768866697946,44.50149519997649,44.489292699843645,44.489374900003895,44.50149519997649,44.50149519997649,44.50149519997649,47.553926300024614,500,1,[3.062231499934569],[3.0622465999331325],365031,001,2024-11-13_13h55.48.200,IntentionalBindingExperiment,2024.1.5,None,2024-11-13 13h55.54.650827 +0530,
0.1,1000,exp,0,6,6,6,47.56164339999668,,47.55572639987804,47.56164339999668,48.56053619994782,48.56053619994782,48.56053619994782,50.897931299870834,space,2.3270333998370916,None,50.898765299934894,51.01351036649818,51.32288130000234,51.30896519985981,51.30899899988435,51.32288130000234,51.32288130000234,51.32288130000234,55.97022609994747,200,1,[4.659255899954587],[4.659265799913555],365031,001,2024-11-13_13h55.48.200,IntentionalBindingExperiment,2024.1.5,None,2024-11-13 13h55.54.650827 +0530,
0.1,1000,exp,0,7,7,3,55.98554919986054,,55.970998199889436,55.98554919986054,56.97066290001385,56.97066290001385,56.9870170999784,58.33903759997338,space,1.365268100053072,None,58.33953549992293,58.43858256662885,58.76043749996461,58.73997400002554,58.740019999910146,58.76043749996461,58.76043749996461,58.76043749996461,61.94345479994081,100,1,[3.2012389001902193],[3.2012513000518084],365031,001,2024-11-13_13h55.48.200,IntentionalBindingExperiment,2024.1.5,None,2024-11-13 13h55.54.650827 +0530,
0.4,1000,exp,0,8,8,10,61.958929599961266,,61.94446829985827,61.958929599961266,62.94336749985814,62.94336749985814,62.96008749981411,64.61446079984307,space,1.6553456999827176,None,64.61538390000351,65.02955076663444,65.35177219985053,65.32957079983316,65.32961749983951,65.35177219985053,65.35177219985053,65.35177219985053,67.80021169991232,200,1,[2.46843110001646],[2.4684399999678135],365031,001,2024-11-13_13h55.48.200,IntentionalBindingExperiment,2024.1.5,None,2024-11-13 13h55.54.650827 +0530,
0.1,1000,exp,0,9,9,9,67.81518689985387,,67.80108090001158,67.81518689985387,68.79999760002829,68.79999760002829,68.81668239994906,71.13718039984815,space,2.3288636000361294,None,71.137938400032,71.25261416664968,71.57296020002104,71.54957729997113,71.54963649995625,71.57296020002104,71.57296020002104,71.57296020002104,75.0742432998959,400,1,[3.521835600025952],[3.521844900213182],365031,001,2024-11-13_13h55.48.200,IntentionalBindingExperiment,2024.1.5,None,2024-11-13 13h55.54.650827 +0530,
0.7,1000,exp,0,10,10,8,75.0896224998869,,75.07506419997662,75.0896224998869,76.07473889994435,76.07473889994435,76.09143120003864,78.04535149992444,space,1.9539195999968797,None,78.04625259991735,78.761283266653,79.08313249982893,79.05968529987149,79.0597729999572,79.08313249982893,79.08313249982893,79.08313249982893,82.43418189999647,400,1,[3.371737000066787],[3.3717517000623047],365031,001,2024-11-13_13h55.48.200,IntentionalBindingExperiment,2024.1.5,None,2024-11-13 13h55.54.650827 +0530,
0.7,1000,exp,0,11,11,5,82.45053999987431,,82.43518889998086,82.45053999987431,83.449331499869,83.449331499869,83.449331499869,84.3360279998742,space,0.8808275999035686,None,84.3369125998579,85.05159766652311,85.37232919991948,85.35000750003383,85.35008619981818,85.37232919991948,85.37232919991948,85.37232919991948,88.45619019982405,400,1,[3.1035434999503195],[3.103554300032556],365031,001,2024-11-13_13h55.48.200,IntentionalBindingExperiment,2024.1.5,None,2024-11-13 13h55.54.650827 +0530,
0.4,1000,exp,1,0,12,4,88.4713999000378,,88.45720389997587,88.4713999000378,89.45619209995493,89.45619209995493,89.47278319997713,90.60946439998224,space,1.1370614999905229,None,90.61043570004404,91.02461606666135,91.34164409991354,91.31952489982359,91.31959760002792,91.34164409991354,91.34164409991354,91.34164409991354,93.86132589983754,400,1,[2.5389264000114053],[2.538935400079936],365031,001,2024-11-13_13h55.48.200,IntentionalBindingExperiment,2024.1.5,None,2024-11-13 13h55.54.650827 +0530,
0.7,1000,exp,1,1,13,11,93.87702999985777,,93.86232759989798,93.87702999985777,94.86255329987034,94.86255329987034,94.87883859989233,96.36662349989638,space,1.493285900214687,None,96.36762429983355,97.08119326649854,97.39113319991156,97.37990679987706,97.37997219990939,97.39113319991156,97.39113319991156,97.39113319991156,99.93627369985916,700,1,[2.554040699964389],[2.5540560998488218],365031,001,2024-11-13_13h55.48.200,IntentionalBindingExperiment,2024.1.5,None,2024-11-13 13h55.54.650827 +0530,
0.1,1000,exp,1,2,14,9,99.95091629982926,,99.93748570000753,99.95091629982926,100.95207939995453,100.95207939995453,100.95207939995453,102.27205109992065,space,1.3183488000649959,None,102.27284849993885,102.38747596653799,102.71021940000355,102.68989809998311,102.6899619998876,102.71021940000355,102.71021940000355,102.71021940000355,106.0924076999072,700,1,[3.3996284999884665],[3.3996387000661343],365031,001,2024-11-13_13h55.48.200,IntentionalBindingExperiment,2024.1.5,None,2024-11-13 13h55.54.650827 +0530,
0.7,400,unexp,1,3,15,2,106.10745789995417,,106.09325269982219,106.10745789995417,107.09197239996865,107.09197239996865,107.10870760004036,108.22736509982497,space,1.1277074001263827,None,108.22804279997945,108.9448640666126,109.25797329982743,109.23956899996847,109.2396102999337,109.25797329982743,109.25797329982743,109.25797329982743,111.59761259984225,300,1,[2.355427899863571],[2.355437699938193],365031,001,2024-11-13_13h55.48.200,IntentionalBindingExperiment,2024.1.5,None,2024-11-13 13h55.54.650827 +0530,
0.4,1000,exp,1,4,16,10,111.61368379998021,,111.59883389994502,111.61368379998021,112.59773299982771,112.59773299982771,112.6153980998788,113.7181235998869,space,1.115391300059855,None,113.71947849984281,114.13331556652362,114.45077249989845,114.42955869995058,114.42961629992351,114.45077249989845,114.45077249989845,114.45077249989845,116.80446559982374,600,1,[2.372072899946943],[2.372082799905911],365031,001,2024-11-13_13h55.48.200,IntentionalBindingExperiment,2024.1.5,None,2024-11-13 13h55.54.650827 +0530,
0.1,400,unexp,1,5,17,0,116.81910609989427,,116.80549079994671,116.81910609989427,117.804057699861,117.804057699861,117.82100669993088,119.24069490004331,space,1.4286170001141727,None,119.24175079981796,119.35596466652738,119.67943649995141,119.6595934999641,119.65963649982587,119.67943649995141,119.67943649995141,119.67943649995141,122.04311369988136,500,1,[2.3813748999964446],[2.381384399952367],365031,001,2024-11-13_13h55.48.200,IntentionalBindingExperiment,2024.1.5,None,2024-11-13 13h55.54.650827 +0530,
0.7,1000,exp,1,6,18,5,122.0581693998538,,122.04404459986836,122.0581693998538,123.0431786000263,123.0431786000263,123.05970909981988,124.24624129990116,space,1.195598900085315,None,124.2471262998879,124.96127986658054,125.28305309987627,125.25982759986073,125.25988659984432,125.28305309987627,125.28305309987627,125.28305309987627,127.4154323998373,400,1,[2.1525650001131],[2.152574900072068],365031,001,2024-11-13_13h55.48.200,IntentionalBindingExperiment,2024.1.5,None,2024-11-13 13h55.54.650827 +0530,
0.4,1000,exp,1,7,19,7,127.43079319992103,,127.41641329997219,127.43079319992103,128.4159617999103,128.4159617999103,128.43292069993913,130.2861033999361,space,1.8628341001458466,None,130.2870290998835,130.70411906653706,131.0284781998489,131.00494669983163,131.00499329995364,131.0284781998489,131.0284781998489,131.0284781998489,134.02416659984738,200,1,[3.016988500021398],[3.0169975999742746],365031,001,2024-11-13_13h55.48.200,IntentionalBindingExperiment,2024.1.5,None,2024-11-13 13h55.54.650827 +0530,
0.4,400,unexp,1,8,20,1,134.03784629981965,,134.0250526999589,134.03784629981965,135.03945359983481,135.03945359983481,135.03945359983481,137.7441527999472,space,2.687502099899575,None,137.74468009988777,138.15952196653623,138.46991879981942,138.45925579988398,138.45928069995716,138.46991879981942,138.46991879981942,138.46991879981942,141.3136521000415,400,1,[2.8528830998111516],[2.852893600007519],365031,001,2024-11-13_13h55.48.200,IntentionalBindingExperiment,2024.1.5,None,2024-11-13 13h55.54.650827 +0530,
0.1,1000,exp,1,9,21,3,141.32939450000413,,141.31467160000466,141.32939450000413,142.3141964999959,142.3141964999959,142.33115849993192,143.43434839998372,space,1.1037475999910384,None,143.43527859984897,143.55006216658902,143.86955399997532,143.84939089999534,143.8494386000093,143.86955399997532,143.86955399997532,143.86955399997532,146.60286640003324,500,1,[2.751268899999559],[2.7512777000665665],365031,001,2024-11-13_13h55.48.200,IntentionalBindingExperiment,2024.1.5,None,2024-11-13 13h55.54.650827 +0530,
0.1,1000,exp,1,10,22,6,146.61830369988456,,146.60375969996676,146.61830369988456,147.60399239999242,147.60399239999242,147.62148139998317,148.05663009989075,space,0.4459818999748677,None,148.0576024998445,148.17154616659198,148.48069649981335,148.4699364998378,148.4700145998504,148.48069649981335,148.48069649981335,148.48069649981335,152.42596239992417,400,1,[3.9541560001671314],[3.9541639001108706],365031,001,2024-11-13_13h55.48.200,IntentionalBindingExperiment,2024.1.5,None,2024-11-13 13h55.54.650827 +0530,
0.7,1000,exp,1,11,23,8,152.44168469985016,,152.42681019986048,152.44168469985016,153.42646979982965,153.42646979982965,153.4433307000436,154.7465305000078,space,1.3101317000109702,None,154.74739159992896,155.4655846665303,155.7907200998161,155.76973369996995,155.7697856000159,155.7907200998161,155.7907200998161,155.7907200998161,157.19910430000164,600,1,[1.4267471998464316],[1.4267598998267204],365031,001,2024-11-13_13h55.48.200,IntentionalBindingExperiment,2024.1.5,None,2024-11-13 13h55.54.650827 +0530,
0.7,1000,exp,2,0,24,5,157.21385639999062,,157.20045370003209,157.21385639999062,158.21527129993774,158.21527129993774,158.21527129993774,159.4352390000131,space,1.2113912000786513,None,159.43625949998386,160.1504169665898,160.47080639982596,160.45037969993427,160.4504390999209,160.47080639982596,160.47080639982596,160.47080639982596,162.68772669997998,200,1,[2.234716200036928],[2.234728700015694],365031,001,2024-11-13_13h55.48.200,IntentionalBindingExperiment,2024.1.5,None,2024-11-13 13h55.54.650827 +0530,
0.4,1000,exp,2,1,25,7,162.70329479989596,,162.68919910001568,162.70329479989596,163.68798159994185,163.68798159994185,163.70445189997554,165.04114490002394,space,1.3370433999225497,None,165.0421487998683,165.4563052666529,165.78164669987746,165.76009929995053,165.76014339993708,165.78164669987746,165.78164669987746,165.78164669987746,168.32769529987127,400,1,[2.5651187999174],[2.565126599976793],365031,001,2024-11-13_13h55.48.200,IntentionalBindingExperiment,2024.1.5,None,2024-11-13 13h55.54.650827 +0530,
0.1,1000,exp,2,2,26,3,168.34258589986712,,168.32887039985508,168.34258589986712,169.34407789981924,169.34407789981924,169.34407789981924,170.29583840002306,space,0.9447183001320809,None,170.29654140002094,170.41194566648144,170.73040859983303,170.70996019989252,170.7100215998944,170.73040859983303,170.73040859983303,170.73040859983303,173.4496328998357,500,1,[2.736064000055194],[2.736074100015685],365031,001,2024-11-13_13h55.48.200,IntentionalBindingExperiment,2024.1.5,None,2024-11-13 13h55.54.650827 +0530,
0.4,1000,exp,2,3,27,10,173.4646506998688,,173.45055860001594,173.4646506998688,174.4497177999001,174.4497177999001,174.46642489987426,176.4369718998205,space,1.9793972000479698,None,176.43795779999346,176.85236056667443,177.17412999994121,177.14985759998672,177.14992189989425,177.17412999994121,177.17412999994121,177.17412999994121,178.87178059993312,300,1,[1.7188436000142246],[1.7188518000766635],365031,001,2024-11-13_13h55.48.200,IntentionalBindingExperiment,2024.1.5,None,2024-11-13 13h55.54.650827 +0530,
0.7,400,unexp,2,4,28,2,178.88749729981646,,178.8726990998257,178.88749729981646,179.87287359987386,179.87287359987386,179.8893382998649,181.69291500002146,space,1.8090181001462042,None,181.69387319986708,182.40893816651467,182.72684030001983,182.70957209984772,182.7096362998709,182.72684030001983,182.72684030001983,182.72684030001983,185.31343889981508,800,1,[2.6003128001466393],[2.600326400017366],365031,001,2024-11-13_13h55.48.200,IntentionalBindingExperiment,2024.1.5,None,2024-11-13 13h55.54.650827 +0530,
0.1,1000,exp,2,5,29,9,185.32781209982932,,185.3144970999565,185.32781209982932,186.31340219988488,186.31340219988488,186.33018659986556,186.76499930000864,space,0.43994449987076223,None,186.76594079984352,186.88005196658585,187.20169080002233,187.1802472998388,187.1803228999488,187.20169080002233,187.20169080002233,187.20169080002233,190.46843419992365,400,1,[3.2855277000926435],[3.285537000047043],365031,001,2024-11-13_13h55.48.200,IntentionalBindingExperiment,2024.1.5,None,2024-11-13 13h55.54.650827 +0530,
0.4,1000,exp,2,6,30,4,190.4838634999469,,190.4693046999164,190.4838634999469,191.4684337999206,191.4684337999206,191.48496289993636,192.53852269984782,space,1.06132259988226,None,192.53987449989654,192.95352756657329,193.27275709994137,193.24916669982485,193.24920740001835,193.27275709994137,193.27275709994137,193.27275709994137,195.17344039981253,200,1,[1.9216808998025954],[1.921688999980688],365031,001,2024-11-13_13h55.48.200,IntentionalBindingExperiment,2024.1.5,None,2024-11-13 13h55.54.650827 +0530,
0.1,1000,exp,2,7,31,6,195.1891516998876,,195.1743343998678,195.1891516998876,196.1738942998927,196.1738942998927,196.19180639996193,197.56002039997838,space,1.3692727000452578,None,197.56078129983507,197.67553546658408,198.00061569991522,197.97958949999884,197.97963219997473,198.00061569991522,198.00061569991522,198.00061569991522,200.44680389994755,100,1,[2.4649811000563204],[2.464990600012243],365031,001,2024-11-13_13h55.48.200,IntentionalBindingExperiment,2024.1.5,None,2024-11-13 13h55.54.650827 +0530,
0.7,1000,exp,2,8,32,11,200.4626398999244,,200.44788879994303,200.4626398999244,201.46250679995865,201.46250679995865,201.46250679995865,202.38135499996133,space,0.908870599931106,None,202.38170499983244,203.08120716648799,203.38911789981648,203.37969650002196,203.37973969988525,203.38911789981648,203.38911789981648,203.38911789981648,205.8354577999562,200,1,[2.454104899894446],[2.454111499944702],365031,001,2024-11-13_13h55.48.200,IntentionalBindingExperiment,2024.1.5,None,2024-11-13 13h55.54.650827 +0530,
0.1,400,unexp,2,9,33,0,205.8509062998928,,205.83605020004325,205.8509062998928,206.8353273998946,206.8353273998946,206.85198279982433,207.73746039997786,space,0.8987745998892933,None,207.73781799990684,207.8530203665762,208.16130719985813,208.14953119982965,208.1495605998207,208.16130719985813,208.16130719985813,208.16130719985813,211.42469439981505,400,1,[3.2734670001082122],[3.2734758001752198],365031,001,2024-11-13_13h55.48.200,IntentionalBindingExperiment,2024.1.5,None,2024-11-13 13h55.54.650827 +0530,
0.4,400,unexp,2,10,34,1,211.44059469993226,,211.42529239994474,211.44059469993226,212.4247636999935,212.4247636999935,212.44129849993624,214.0276352998335,space,1.5997104002162814,None,214.0279863998294,214.42707266664755,214.7387661000248,214.7293006000109,214.729327699868,214.7387661000248,214.7387661000248,214.7387661000248,216.91554600000381,300,1,[2.184080900158733],[2.1840870999731123],365031,001,2024-11-13_13h55.48.200,IntentionalBindingExperiment,2024.1.5,None,2024-11-13 13h55.54.650827 +0530,
0.7,1000,exp,2,11,35,8,216.9297272998374,,216.916239899816,216.9297272998374,217.93034299998544,217.93034299998544,217.93034299998544,219.13338779984042,space,1.1973776000086218,None,219.1338434999343,219.83308456658077,220.190046899952,220.14228569995612,220.14233159995638,220.190046899952,220.190046899952,220.190046899952,222.40446410002187,200,1,[2.229744700016454],[2.229756199987605],365031,001,2024-11-13_13h55.48.200,IntentionalBindingExperiment,2024.1.5,None,2024-11-13 13h55.54.650827 +0530,
0.4,1000,exp,3,0,36,10,222.41927960002795,,222.40557179995812,222.41927960002795,223.42083249986172,223.42083249986172,223.42083249986172,224.691517499974,space,1.2588109001517296,None,224.69253359991126,225.10489206650917,225.4310180998873,225.4095667998772,225.40961009985767,225.4310180998873,225.4310180998873,225.4310180998873,227.55960859986953,200,1,[2.1478126000147313],[2.147845400031656],365031,001,2024-11-13_13h55.48.200,IntentionalBindingExperiment,2024.1.5,None,2024-11-13 13h55.54.650827 +0530,
0.7,1000,exp,3,1,37,8,227.5765404999256,,227.56048119999468,227.5765404999256,228.57584910001606,228.57584910001606,228.59234500001185,230.31374979997054,space,1.7250620999839157,None,230.3146059999708,231.02816566668142,231.34970019990578,231.32934399996884,231.32940679998137,231.34970019990578,231.34970019990578,231.34970019990578,233.23170319991186,200,1,[1.899834199808538],[1.8998433998785913],365031,001,2024-11-13_13h55.48.200,IntentionalBindingExperiment,2024.1.5,None,2024-11-13 13h55.54.650827 +0530,
0.1,400,unexp,3,2,38,0,233.24732719990425,,233.23269629990682,233.24732719990425,234.23261710000224,234.23261710000224,234.2489893999882,234.71816009981558,space,0.4827778998296708,None,234.71928879991174,234.83298656653304,235.15328349987976,235.1294321999885,235.1294927999843,235.15328349987976,235.15328349987976,235.15328349987976,238.03760619997047,100,1,[2.904504300095141],[2.9045156000647694],365031,001,2024-11-13_13h55.48.200,IntentionalBindingExperiment,2024.1.5,None,2024-11-13 13h55.54.650827 +0530,
0.7,1000,exp,3,3,39,11,238.0525904998649,,238.03880689991638,238.0525904998649,239.03786359983496,239.03786359983496,239.05419179983437,240.77479349984787,space,1.724108099937439,None,240.77575429994613,241.4904335665672,241.81040499988012,241.79042149987072,241.79050470003858,241.81040499988012,241.81040499988012,241.81040499988012,244.39413859997876,100,1,[2.601453599985689],[2.6014628000557423],365031,001,2024-11-13_13h55.48.200,IntentionalBindingExperiment,2024.1.5,None,2024-11-13 13h55.54.650827 +0530,
0.1,1000,exp,3,4,40,6,244.4095105000306,,244.39496269985102,244.4095105000306,245.39912159997039,245.39912159997039,245.41104070004076,247.21498689986765,space,1.8024377000983804,None,247.21591529995203,247.32993226667557,247.64961889991537,247.6301333999727,247.63017869996838,247.64961889991537,247.64961889991537,247.64961889991537,249.6500170000363,200,1,[2.0176214000675827],[2.0176325000356883],365031,001,2024-11-13_13h55.48.200,IntentionalBindingExperiment,2024.1.5,None,2024-11-13 13h55.54.650827 +0530,
0.7,400,unexp,3,5,41,2,249.66563869989477,,249.65105729992501,249.66563869989477,250.65121299983002,250.65121299983002,250.66732509993017,252.18638919992372,space,1.526855600066483,None,252.1867360000033,252.90274606651317,253.20875169988722,253.19859789987095,253.19862369983457,253.20875169988722,253.20875169988722,253.20875169988722,255.22375789983198,100,1,[2.023687700042501],[2.0236943000927567],365031,001,2024-11-13_13h55.48.200,IntentionalBindingExperiment,2024.1.5,None,2024-11-13 13h55.54.650827 +0530,
0.1,1000,exp,3,6,42,3,255.23861479992047,,255.22435080003925,255.23861479992047,256.23980679991655,256.23980679991655,256.23980679991655,258.12742589996196,space,1.885819099843502,None,258.12776999990456,258.2418428667045,258.54894519993104,258.5389115998987,258.5389336999506,258.54894519993104,258.54894519993104,258.54894519993104,261.6304235998541,100,1,[3.08998590009287],[3.08999180002138],365031,001,2024-11-13_13h55.48.200,IntentionalBindingExperiment,2024.1.5,None,2024-11-13 13h55.54.650827 +0530,
0.4,400,unexp,3,7,43,1,261.6456382998731,,261.6310510998592,261.6456382998731,262.63005769997835,262.63005769997835,262.64652720000595,263.46602749987505,space,0.8286890999879688,None,263.4670249999035,263.8817738665423,264.20255119982176,264.18256730004214,264.18261949997395,264.20255119982176,264.20255119982176,264.20255119982176,266.75184020004235,200,1,[2.5671699999365956],[2.5671766998711973],365031,001,2024-11-13_13h55.48.200,IntentionalBindingExperiment,2024.1.5,None,2024-11-13 13h55.54.650827 +0530,
0.7,1000,exp,3,8,44,5,266.76731169992127,,266.7524386998266,266.76731169992127,267.7529102000408,267.7529102000408,267.7691045999527,268.52078589983284,space,0.7535443999804556,None,268.52113240002654,269.2207691665428,269.52950659999624,269.51972929993644,269.51980689982884,269.52950659999624,269.52950659999624,269.52950659999624,271.34071079990827,300,1,[1.8194212999660522],[1.8194275998976082],365031,001,2024-11-13_13h55.48.200,IntentionalBindingExperiment,2024.1.5,None,2024-11-13 13h55.54.650827 +0530,
0.4,1000,exp,3,9,45,7,271.35618450003676,,271.34138719993643,271.35618450003676,272.34089559991844,272.34089559991844,272.35781569988467,274.26079780003056,space,1.9101434999611229,None,274.2611380999442,274.6765326664938,274.98735309997573,274.9791838999372,274.97920579998754,274.98735309997573,274.98735309997573,274.98735309997573,276.8634897999,200,1,[1.8829073999077082],[1.8829123999457806],365031,001,2024-11-13_13h55.48.200,IntentionalBindingExperiment,2024.1.5,None,2024-11-13 13h55.54.650827 +0530,
0.4,1000,exp,3,10,46,4,276.879023199901,,276.8640899998136,276.879023199901,277.863594800001,277.863594800001,277.8804609000217,278.8993963999674,space,1.0243065999820828,None,278.8998441998847,279.31540136650824,279.6285894999746,279.6199274000246,279.61995489988476,279.6285894999746,279.6285894999746,279.6285894999746,281.9363575000316,400,1,[2.3146291999146342],[2.3146448000334203],365031,001,2024-11-13_13h55.48.200,IntentionalBindingExperiment,2024.1.5,None,2024-11-13 13h55.54.650827 +0530,
0.1,1000,exp,3,11,47,9,281.95139549998567,,281.9377480999101,281.95139549998567,282.9527091998607,282.9527091998607,282.9527091998607,283.92239880003035,space,0.9583862000145018,None,283.9233933999203,284.03692856670045,284.3601267999038,284.33989219996147,284.33993639983237,284.3601267999038,284.3601267999038,284.3601267999038,286.14186129998416,300,1,[1.7995607999619097],[1.799572499934584],365031,001,2024-11-13_13h55.48.200,IntentionalBindingExperiment,2024.1.5,None,2024-11-13 13h55.54.650827 +0530,
0.4,1000,exp,4,0,48,7,286.156254200032,,286.14324729982764,286.156254200032,287.1572606000118,287.1572606000118,287.1572606000118,288.22713340003975,space,1.0674644000828266,None,288.2281837000046,288.64217096666493,288.95514809992164,288.93923439993523,288.93928950000554,288.95514809992164,288.95514809992164,288.95514809992164,290.5946609999519,600,1,[1.6534394000191242],[1.653447600081563],365031,001,2024-11-13_13h55.48.200,IntentionalBindingExperiment,2024.1.5,None,2024-11-13 13h55.54.650827 +0530,
0.4,1000,exp,4,1,49,4,290.61041309987195,,290.5954893999733,290.61041309987195,291.5955546000041,291.5955546000041,291.61137709999457,292.59731430001557,space,0.9926026999019086,None,292.5976593999658,292.99699516670466,293.31186519982293,293.2991015999578,293.29912989982404,293.31186519982293,293.31186519982293,293.31186519982293,296.99543259991333,100,1,[3.6937700998969376],[3.6937806999776512],365031,001,2024-11-13_13h55.48.200,IntentionalBindingExperiment,2024.1.5,None,2024-11-13 13h55.54.650827 +0530,
0.4,1000,exp,4,2,50,10,297.02754099993035,,296.9995828999672,297.02754099993035,298.0016902999487,298.0016902999487,298.03516700002365,299.62124879984185,space,1.6148248000536114,None,299.62159370002337,300.0209175665552,300.3285921998322,300.31897499994375,300.31900219991803,300.3285921998322,300.3285921998322,300.3285921998322,302.0241083998699,100,1,[1.7031515999697149],[1.7031565001234412],365031,001,2024-11-13_13h55.48.200,IntentionalBindingExperiment,2024.1.5,None,2024-11-13 13h55.54.650827 +0530,
0.7,1000,exp,4,3,51,5,302.03975859982893,,302.0246929998975,302.03975859982893,303.0243466999382,303.0243466999382,303.0409772999119,303.44229249982163,space,0.4016574998386204,None,303.4426759998314,304.1421094665459,304.4487174998503,304.43929959996603,304.43933289987035,304.4487174998503,304.4487174998503,304.4487174998503,306.04613779997453,200,1,[1.605163199827075],[1.6051693998742849],365031,001,2024-11-13_13h55.48.200,IntentionalBindingExperiment,2024.1.5,None,2024-11-13 13h55.54.650827 +0530,
0.1,400,unexp,4,4,52,0,306.06072680000216,,306.04673129995354,306.06072680000216,307.0619999000337,307.0619999000337,307.0619999000337,307.4969865998719,space,0.4267990000080317,None,307.4973652998451,307.6128917665376,307.91703279991634,307.90891040000133,307.908932399936,307.91703279991634,307.91703279991634,307.91703279991634,309.6992059999611,100,1,[1.7890244000591338],[1.7890299998689443],365031,001,2024-11-13_13h55.48.200,IntentionalBindingExperiment,2024.1.5,None,2024-11-13 13h55.54.650827 +0530,
0.1,1000,exp,4,5,53,9,309.7146111999173,,309.6998023998458,309.7146111999173,310.69927560002543,310.69927560002543,310.7160624000244,311.5848846998997,space,0.8754420001059771,None,311.58531759982,311.7007277666746,312.00791629985906,311.9991496000439,311.9991996998433,312.00791629985906,312.00791629985906,312.00791629985906,314.0040066000074,200,1,[2.003147999988869],[2.003153400029987],365031,001,2024-11-13_13h55.48.200,IntentionalBindingExperiment,2024.1.5,None,2024-11-13 13h55.54.650827 +0530,
0.7,1000,exp,4,6,54,11,314.0197689998895,,314.0045890000183,314.0197689998895,315.00392970000394,315.00392970000394,315.02076629991643,316.4066172998864,space,1.3995612000580877,None,316.4069560000207,317.1064438666838,317.41995849995874,317.41062069986947,317.4106433999259,317.41995849995874,317.41995849995874,317.41995849995874,319.627090399852,200,1,[2.214943999890238],[2.214950099820271],365031,001,2024-11-13_13h55.48.200,IntentionalBindingExperiment,2024.1.5,None,2024-11-13 13h55.54.650827 +0530,
0.7,1000,exp,4,7,55,8,319.64227399998344,,319.6276889999863,319.64227399998344,320.62664279993623,320.62664279993623,320.64391059987247,321.94592169998214,space,1.3169809998944402,None,321.9462615000084,322.645659466569,322.9574988000095,322.9491736998316,322.94919659988955,322.9574988000095,322.9574988000095,322.9574988000095,326.43408699985594,100,1,[3.483661700040102],[3.483667300082743],365031,001,2024-11-13_13h55.48.200,IntentionalBindingExperiment,2024.1.5,None,2024-11-13 13h55.54.650827 +0530,
0.7,400,unexp,4,8,56,2,326.44972329982556,,326.43469339981675,326.44972329982556,327.43468129984103,327.43468129984103,327.45081189996563,328.8869129999075,space,1.4501581999938935,None,328.88727329997346,329.58666046668463,329.8968889999669,329.8888588999398,329.88888149987906,329.8968889999669,329.8968889999669,329.8968889999669,332.04113709996454,100,1,[2.150893700076267],[2.1509045001585037],365031,001,2024-11-13_13h55.48.200,IntentionalBindingExperiment,2024.1.5,None,2024-11-13 13h55.54.650827 +0530,
0.4,400,unexp,4,9,57,1,332.05650589987636,,332.04222239996307,332.05650589987636,333.05772119993344,333.05772119993344,333.05772119993344,335.0270944000222,space,1.9612096000928432,None,335.02744989981875,335.44306756655374,335.74816569988616,335.73911289987154,335.7391357999295,335.74816569988616,335.74816569988616,335.74816569988616,338.44784679985605,100,1,[2.7075787000358105],[2.7075854998547584],365031,001,2024-11-13_13h55.48.200,IntentionalBindingExperiment,2024.1.5,None,2024-11-13 13h55.54.650827 +0530,
0.1,1000,exp,4,10,58,6,338.46309429989196,,338.44845329993404,338.46309429989196,339.44747200002894,339.44747200002894,339.46417999989353,340.40000759996474,space,0.9478169998619705,None,340.4006115999073,340.51537246659086,340.82673650002107,340.81875510001555,340.81877939985134,340.82673650002107,340.82673650002107,340.82673650002107,342.6695367000066,200,1,[1.8494219998829067],[1.8494319000747055],365031,001,2024-11-13_13h55.48.200,IntentionalBindingExperiment,2024.1.5,None,2024-11-13 13h55.54.650827 +0530,
0.1,1000,exp,4,11,59,3,342.68445539986715,,342.670613899827,342.68445539986715,343.685456499923,343.685456499923,343.685456499923,344.3209848999977,space,0.6263951999135315,None,344.3213517998811,344.4362064665804,344.7504129000008,344.7386896999087,344.7387282999698,344.7504129000008,344.7504129000008,344.7504129000008,347.0248171000276,100,1,[2.2842328001279384],[2.284242100082338],365031,001,2024-11-13_13h55.48.200,IntentionalBindingExperiment,2024.1.5,None,2024-11-13 13h55.54.650827 +0530,
0.1,1000,exp,5,0,60,9,347.03965689986944,,347.0259042000398,347.03965689986944,348.0409436998889,348.0409436998889,348.0409436998889,348.7422598998528,space,0.695407300023362,None,348.7426140999887,348.8577516666303,349.1672488998156,349.15893099992536,349.1589585999027,349.1672488998156,349.1672488998156,349.1672488998156,350.8454435998574,100,1,[1.6851170000154525],[1.6851230000611395],365031,001,2024-11-13_13h55.48.200,IntentionalBindingExperiment,2024.1.5,None,2024-11-13 13h55.54.650827 +0530,
0.1,400,unexp,5,1,61,0,350.8609034998808,,350.84685950004496,350.8609034998808,351.8612983999774,351.8612983999774,351.8612983999774,353.0973944000434,space,1.2328336001373827,None,353.09775849990547,353.2127008666905,353.51791479997337,353.5087498999201,353.5087717999704,353.51791479997337,353.51791479997337,353.51791479997337,355.78302049986087,400,1,[2.2730362999718636],[2.2730418001301587],365031,001,2024-11-13_13h55.48.200,IntentionalBindingExperiment,2024.1.5,None,2024-11-13 13h55.54.650827 +0530,
0.4,1000,exp,5,2,62,10,355.7990751999896,,355.78360900003463,355.7990751999896,356.7834618999623,356.7834618999623,356.8000280999113,357.65246140002273,space,0.857692199992016,None,357.65287350001745,358.0681056664946,358.37728079990484,358.36898339982145,358.3690090000164,358.37728079990484,358.37728079990484,358.37728079990484,360.75575879984535,100,1,[2.385067400056869],[2.3850783000234514],365031,001,2024-11-13_13h55.48.200,IntentionalBindingExperiment,2024.1.5,None,2024-11-13 13h55.54.650827 +0530,
0.7,400,unexp,5,3,63,2,360.77114139986224,,360.7563499000389,360.77114139986224,361.7554138000123,361.7554138000123,361.77211269992404,362.2069967999123,space,0.43591089989058673,None,362.2073788999114,362.9069107666767,363.2172638999764,363.20896920002997,363.208991299849,363.2172638999764,363.2172638999764,363.2172638999764,365.40959830000065,500,1,[2.1989162999670953],[2.198941000038758],365031,001,2024-11-13_13h55.48.200,IntentionalBindingExperiment,2024.1.5,None,2024-11-13 13h55.54.650827 +0530,
0.4,400,unexp,5,4,64,1,365.42744320002384,,365.4109576998744,365.42744320002384,366.41160649992526,366.41160649992526,366.4285987999756,367.91319149988703,space,1.4879763999488205,None,367.91358829988167,368.31332216650867,368.61991539993323,368.6095489000436,368.6095938999206,368.61991539993323,368.61991539993323,368.61991539993323,370.78492089989595,300,1,[2.1736600000876933],[2.1736659999005497],365031,001,2024-11-13_13h55.48.200,IntentionalBindingExperiment,2024.1.5,None,2024-11-13 13h55.54.650827 +0530,
0.1,1000,exp,5,5,65,3,370.79926160001196,,370.7855150999967,370.79926160001196,371.800489799818,371.800489799818,371.800489799818,372.6695890999399,space,0.8585752998478711,None,372.6699643000029,372.7852670665054,373.0980926998891,373.0890927000437,373.08911859989166,373.0980926998891,373.0980926998891,373.0980926998891,376.4234614998568,200,1,[3.3328034000005573],[3.332808999810368],365031,001,2024-11-13_13h55.48.200,IntentionalBindingExperiment,2024.1.5,None,2024-11-13 13h55.54.650827 +0530,
0.1,1000,exp,5,6,66,6,376.43922239984386,,376.4240472000092,376.43922239984386,377.4233709999826,377.4233709999826,377.43999319989234,378.091860699933,space,0.6538299000822008,None,378.0922055998817,378.2075455666675,378.519009700045,378.509626199957,378.5096527999267,378.519009700045,378.519009700045,378.519009700045,382.1640037999023,100,1,[3.652916100108996],[3.652922800043598],365031,001,2024-11-13_13h55.48.200,IntentionalBindingExperiment,2024.1.5,None,2024-11-13 13h55.54.650827 +0530,
0.7,1000,exp,5,7,67,8,382.17851300002076,,382.164590299828,382.17851300002076,383.1797036998905,383.1797036998905,383.1797036998905,384.36559309996665,space,1.1827786001376808,None,384.3659387999214,385.06503416650617,385.379346099915,385.36966779991053,385.36969959991984,385.379346099915,385.379346099915,385.379346099915,391.40737349982373,200,1,[6.036134399939328],[6.036140599986538],365031,001,2024-11-13_13h55.48.200,IntentionalBindingExperiment,2024.1.5,None,2024-11-13 13h55.54.650827 +0530,
0.4,1000,exp,5,8,68,7,391.42192270001397,,391.4079546998255,391.42192270001397,392.4232774998527,392.4232774998527,392.4232774998527,392.84131649998017,space,0.40718539990484715,None,392.84166269982234,393.25749746669703,393.5682534999214,393.5593832999002,393.5594065999612,393.5682534999214,393.5682534999214,393.5682534999214,395.8784334999509,200,1,[2.317599300062284],[2.3176106000319123],365031,001,2024-11-13_13h55.48.200,IntentionalBindingExperiment,2024.1.5,None,2024-11-13 13h55.54.650827 +0530,
0.7,1000,exp,5,9,69,11,395.8933627998922,,395.8790458999574,395.8933627998922,396.8781869998202,396.8781869998202,396.89477070001885,397.9133092998527,space,1.02432780014351,None,397.91371169989,398.6133837665586,398.9189406998921,398.9087365998421,398.9087626999244,398.9189406998921,398.9189406998921,398.9189406998921,400.3658358999528,100,1,[1.455733299953863],[1.4557431999128312],365031,001,2024-11-13_13h55.48.200,IntentionalBindingExperiment,2024.1.5,None,2024-11-13 13h55.54.650827 +0530,
0.4,1000,exp,5,10,70,4,400.38128819991834,,400.366572199855,400.38128819991834,401.3666777999606,401.3666777999606,401.38252260000445,403.16931779985316,space,1.8013832999859005,None,403.1696583998855,403.5688008666659,403.87863209983334,403.86865770001896,403.8686851998791,403.87863209983334,403.87863209983334,403.87863209983334,406.20648359996267,100,1,[2.33631409984082],[2.3363313998561352],365031,001,2024-11-13_13h55.48.200,IntentionalBindingExperiment,2024.1.5,None,2024-11-13 13h55.54.650827 +0530,
0.7,1000,exp,5,11,71,5,406.22151830000803,,406.207181799924,406.22151830000803,407.22281960002147,407.22281960002147,407.22281960002147,408.6083257999271,space,1.3797571000177413,None,408.60899610002525,409.3084008666376,409.61793199996464,409.60921909986064,409.6092431000434,409.61793199996464,409.61793199996464,409.61793199996464,411.7797373000067,200,1,[2.1690703998319805],[2.169076699996367],365031,001,2024-11-13_13h55.48.200,IntentionalBindingExperiment,2024.1.5,None,2024-11-13 13h55.54.650827 +0530,
0.4,1000,exp,6,0,72,7,411.79452529991977,,411.7803296998609,411.79452529991977,412.79551439988427,412.79551439988427,412.79551439988427,413.3974982998334,space,0.5944767999462783,None,413.3979887999594,413.8135023664838,414.1193086998537,414.1087541000452,414.1087791000027,414.1193086998537,414.1193086998537,414.1193086998537,415.90148719982244,200,1,[1.7912894999608397],[1.7912959998939186],365031,001,2024-11-13_13h55.48.200,IntentionalBindingExperiment,2024.1.5,None,2024-11-13 13h55.54.650827 +0530,
0.1,1000,exp,6,1,73,3,415.91562149999663,,415.9020756999962,415.91562149999663,416.91698680003174,416.91698680003174,416.91698680003174,417.80304929986596,space,0.8836782001890242,None,417.80350209982134,417.9179890666312,418.22900619986467,418.21929090004414,418.2193219999317,418.22900619986467,418.22900619986467,418.22900619986467,420.3895830998663,100,1,[2.168564299819991],[2.168571599991992],365031,001,2024-11-13_13h55.48.200,IntentionalBindingExperiment,2024.1.5,None,2024-11-13 13h55.54.650827 +0530,
0.4,1000,exp,6,2,74,10,420.40376319992356,,420.39022689987905,420.40376319992356,421.4048921999056,421.4048921999056,421.4048921999056,422.62461979989894,space,1.2179128001444042,None,422.6249712998979,423.0400908666818,423.3485037998762,423.3392830998637,423.3393706998322,423.3485037998762,423.3485037998762,423.3485037998762,426.47931550000794,150,1,[3.1384886000305414],[3.13849540008232],365031,001,2024-11-13_13h55.48.200,IntentionalBindingExperiment,2024.1.5,None,2024-11-13 13h55.54.650827 +0530,
0.4,1000,exp,6,3,75,4,426.49414049996994,,426.47990979999304,426.49414049996994,427.4949793999549,427.4949793999549,427.4949793999549,428.89848549989983,space,1.3948219998273998,None,428.89905799995176,429.31385886652083,429.6189366998151,429.6088064999785,429.60882709990256,429.6189366998151,429.6189366998151,429.6189366998151,431.3853668998927,200,1,[1.7751810001209378],[1.7751875000540167],365031,001,2024-11-13_13h55.48.200,IntentionalBindingExperiment,2024.1.5,None,2024-11-13 13h55.54.650827 +0530,
0.7,1000,exp,6,4,76,5,431.3995986999944,,431.3859544999432,431.3995986999944,432.4003410998266,432.4003410998266,432.4003410998266,432.4854421999771,space,0.06764989998191595,None,432.4858877998777,433.18530726648555,433.49811009992845,433.48935659998097,433.4893773999065,433.49811009992845,433.49811009992845,433.49811009992845,435.4057455000002,200,1,[1.915113699855283],[1.9151204000227153],365031,001,2024-11-13_13h55.48.200,IntentionalBindingExperiment,2024.1.5,None,2024-11-13 13h55.54.650827 +0530,
0.1,1000,exp,6,5,77,6,435.42034649988636,,435.4064005999826,435.42034649988636,436.4215758999344,436.4215758999344,436.4215758999344,437.2577019999735,space,0.830381500069052,None,437.2583549998235,437.3724951665538,437.6799090998247,437.6689987999853,437.6690232998226,437.6799090998247,437.6799090998247,437.6799090998247,439.61017200001515,100,1,[1.9395915002096444],[1.939596900017932],365031,001,2024-11-13_13h55.48.200,IntentionalBindingExperiment,2024.1.5,None,2024-11-13 13h55.54.650827 +0530,
0.7,1000,exp,6,6,78,11,439.6251727999188,,439.61079549998976,439.6251727999188,440.62638399982825,440.62638399982825,440.62638399982825,441.41169889993034,space,0.7700079001951963,None,441.4120950999204,442.1112760666913,442.4187476998195,442.40895069995895,442.40898009995,442.4187476998195,442.4187476998195,442.4187476998195,446.4012048000004,100,1,[3.9903399001341313],[3.990346600068733],365031,001,2024-11-13_13h55.48.200,IntentionalBindingExperiment,2024.1.5,None,2024-11-13 13h55.54.650827 +0530,
0.7,400,unexp,6,7,79,2,446.4159329000395,,446.4017894999124,446.4159329000395,447.417018200038,447.417018200038,447.417018200038,447.9523636000231,space,0.5317770000547171,None,447.95285469992086,448.6520305665365,448.9591745999642,448.9488117999863,448.94883689982817,448.9591745999642,448.9591745999642,448.9591745999642,451.2397890998982,500,1,[2.2892655001487583],[2.2892714999616146],365031,001,2024-11-13_13h55.48.200,IntentionalBindingExperiment,2024.1.5,None,2024-11-13 13h55.54.650827 +0530,
0.1,1000,exp,6,8,80,9,451.25478699989617,,451.24041899992153,451.25478699989617,452.23924739984795,452.23924739984795,452.25575320003554,453.34166369982995,space,1.0988938000518829,None,453.3421972999349,453.4569687666992,453.7691261,453.75939060002565,453.75941689987667,453.7691261,453.7691261,453.7691261,456.095352999866,200,1,[2.3345325000118464],[2.3345385999418795],365031,001,2024-11-13_13h55.48.200,IntentionalBindingExperiment,2024.1.5,None,2024-11-13 13h55.54.650827 +0530,
0.4,400,unexp,6,9,81,1,456.1098900998477,,456.09594409982674,456.1098900998477,457.1112706998829,457.1112706998829,457.1112706998829,460.56646310002543,space,3.452641800045967,None,460.56691289995797,460.9819158665525,461.2891112999059,461.27909899991937,461.2791285000276,461.2891112999059,461.2891112999059,461.2891112999059,462.8865369998384,200,1,[1.605843299999833],[1.6058494001626968],365031,001,2024-11-13_13h55.48.200,IntentionalBindingExperiment,2024.1.5,None,2024-11-13 13h55.54.650827 +0530,
0.7,1000,exp,6,10,82,8,462.90094389999285,,462.88721559988335,462.90094389999285,463.902074099984,463.902074099984,463.902074099984,464.8372286998201,space,0.9240453999955207,None,464.83759090001695,465.53713216662095,465.8482443999965,465.8396053998731,465.83963819989003,465.8482443999965,465.8482443999965,465.8482443999965,467.27318949997425,300,1,[1.4321818000171334],[1.4321874000597745],365031,001,2024-11-13_13h55.48.200,IntentionalBindingExperiment,2024.1.5,None,2024-11-13 13h55.54.650827 +0530,
0.1,400,unexp,6,11,83,0,467.28875419986434,,467.27382520004176,467.28875419986434,468.2733052999247,468.2733052999247,468.289855199866,469.143452799879,space,0.8683537999168038,None,469.1438030998688,469.25782286661365,469.5675699999556,469.5590647999197,469.55908699985594,469.5675699999556,469.5675699999556,469.5675699999556,471.5281879999675,200,1,[1.9676824999041855],[1.96768799982965],365031,001,2024-11-13_13h55.48.200,IntentionalBindingExperiment,2024.1.5,None,2024-11-13 13h55.54.650827 +0530,
0.7,1000,exp,7,0,84,8,471.5436654998921,,471.52881879988126,471.5436654998921,472.52787659992464,472.52787659992464,472.5449836999178,473.64722759998403,space,1.1020062998868525,None,473.64761770004407,474.3469086664884,474.65855719987303,474.6495854998939,474.64961119997315,474.65855719987303,474.65855719987303,474.65855719987303,475.9676146998536,100,1,[1.316577299963683],[1.3165837998967618],365031,001,2024-11-13_13h55.48.200,IntentionalBindingExperiment,2024.1.5,None,2024-11-13 13h55.54.650827 +0530,
0.4,1000,exp,7,1,85,10,475.9818565000314,,475.96819749986753,475.9818565000314,476.9826789998915,476.9826789998915,476.9826789998915,478.4195367000066,space,1.4316037001553923,None,478.41998200002126,478.8352693666859,479.1390572998207,479.12915239995345,479.12917289999314,479.1390572998207,479.1390572998207,479.1390572998207,482.44057819992304,200,1,[3.310060099931434],[3.3100660999771208],365031,001,2024-11-13_13h55.48.200,IntentionalBindingExperiment,2024.1.5,None,2024-11-13 13h55.54.650827 +0530,
0.4,1000,exp,7,2,86,4,482.45545899984427,,482.4411642998457,482.45545899984427,483.45667200000025,483.45667200000025,483.45667200000025,484.676958499942,space,1.2182002000045031,None,484.6773456998635,485.09237486665756,485.40817589988,485.39435569988564,485.39439120003954,485.40817589988,485.40817589988,485.40817589988,487.2787273998838,100,1,[1.880142099922523],[1.8801474999636412],365031,001,2024-11-13_13h55.48.200,IntentionalBindingExperiment,2024.1.5,None,2024-11-13 13h55.54.650827 +0530,
0.1,1000,exp,7,3,87,9,487.29427829990163,,487.279318299843,487.29427829990163,488.2788276998326,488.2788276998326,488.2955564998556,489.14803759986535,space,0.8662686999887228,None,489.14838659996167,489.2632301666929,489.5701243998483,489.5591978998855,489.5592192998156,489.5701243998483,489.5701243998483,489.5701243998483,491.13386249984615,300,1,[1.573031600099057],[1.5730378001462668],365031,001,2024-11-13_13h55.48.200,IntentionalBindingExperiment,2024.1.5,None,2024-11-13 13h55.54.650827 +0530,
0.1,1000,exp,7,4,88,3,491.1486726999283,,491.13451040000655,491.1486726999283,492.132833099924,492.132833099924,492.1498630999122,492.51832639984787,space,0.3752709000837058,None,492.51870469981804,492.63377236650945,492.93900849996135,492.92871219990775,492.92873449996114,492.93900849996135,492.93900849996135,492.93900849996135,499.50918819988146,100,1,[6.57908029993996],[6.579086899990216],365031,001,2024-11-13_13h55.48.200,IntentionalBindingExperiment,2024.1.5,None,2024-11-13 13h55.54.650827 +0530,
0.4,1000,exp,7,5,89,7,499.52420939994045,,499.5097794998437,499.52420939994045,500.5094455999788,500.5094455999788,500.5255372999236,501.21094070002437,space,0.6983223001006991,None,501.21133189997636,501.62697696668715,501.9382626998704,501.92907099984586,501.9290924000088,501.9382626998704,501.9382626998704,501.9382626998704,503.73037029989064,100,1,[1.7998803998343647],[1.7998871998861432],365031,001,2024-11-13_13h55.48.200,IntentionalBindingExperiment,2024.1.5,None,2024-11-13 13h55.54.650827 +0530,
0.1,1000,exp,7,6,90,6,503.7459304998629,,503.73111149994656,503.7459304998629,504.7303084998857,504.7303084998857,504.74692069995217,505.71615869994275,space,0.9738263001199812,None,505.71659490000457,505.8314978664896,506.13915219996125,506.1290227000136,506.1290565999225,506.13915219996125,506.13915219996125,506.13915219996125,509.68702149996534,50,1,[3.5558364999014884],[3.5558480999898165],365031,001,2024-11-13_13h55.48.200,IntentionalBindingExperiment,2024.1.5,None,2024-11-13 13h55.54.650827 +0530,
0.1,400,unexp,7,7,91,0,509.7018253998831,,509.6878277999349,509.7018253998831,510.7017065999098,510.7017065999098,510.7205731999129,511.6228723998647,space,0.9167788999620825,None,511.62343369983137,511.7374210665623,512.0480328998528,512.0386383999139,512.0386653000023,512.0480328998528,512.0480328998528,512.0480328998528,514.7272997999098,600,1,[2.687203299952671],[2.6872097000014037],365031,001,2024-11-13_13h55.48.200,IntentionalBindingExperiment,2024.1.5,None,2024-11-13 13h55.54.650827 +0530,
0.7,400,unexp,7,8,92,2,514.7411352000199,,514.7278915999923,514.7411352000199,515.7423745999113,515.7423745999113,515.7423745999113,515.9770829000045,space,0.2284395000897348,None,515.9775288000237,516.6769148666101,516.9892392999027,516.9789515999146,516.9789740999695,516.9892392999027,516.9892392999027,516.9892392999027,521.3856156999245,800,1,[4.397611799882725],[4.397746499860659],365031,001,2024-11-13_13h55.48.200,IntentionalBindingExperiment,2024.1.5,None,2024-11-13 13h55.54.650827 +0530,
0.7,1000,exp,7,9,93,11,521.43330959999,,521.4029779999983,521.43330959999,522.3994783998933,522.3994783998933,522.4331230998505,523.2343248999678,space,0.8224456999450922,None,523.2346931998618,523.934707866578,524.2442311998457,524.2353326999582,524.235353600001,524.2442311998457,524.2442311998457,524.2442311998457,530.3938264998142,300,1,[6.157099999953061],[6.157105500111356],365031,001,2024-11-13_13h55.48.200,IntentionalBindingExperiment,2024.1.5,None,2024-11-13 13h55.54.650827 +0530,
0.7,1000,exp,7,10,94,5,530.4083121998701,,530.3944683999289,530.4083121998701,531.4096696998458,531.4096696998458,531.4096696998458,532.4291321998462,space,1.0152213999535888,None,532.4294751000125,533.1286624665993,533.4391868999228,533.4290673998185,533.4291069998872,533.4391868999228,533.4391868999228,533.4391868999228,536.7508704999927,534,1,[3.320132400142029],[3.320138400187716],365031,001,2024-11-13_13h55.48.200,IntentionalBindingExperiment,2024.1.5,None,2024-11-13 13h55.54.650827 +0530,
0.4,400,unexp,7,11,95,1,536.7655089998152,,536.7515044999309,536.7655089998152,537.7667075998615,537.7667075998615,537.7667075998615,539.3035468999296,space,1.5238340999931097,None,539.3038921998814,539.7184174666802,540.0290800000075,540.0191170999315,540.0191473998129,540.0290800000075,540.0290800000075,540.0290800000075,542.3735487000085,700,1,[2.3528427998535335],[2.3528489000163972],365031,001,2024-11-13_13h55.48.200,IntentionalBindingExperiment,2024.1.5,None,2024-11-13 13h55.54.650827 +0530,
0.7,1000,exp,8,0,96,5,542.3883030000143,,542.3741339000408,542.3883030000143,543.3896697999444,543.3896697999444,543.3896697999444,544.5758038999047,space,1.1813835999928415,None,544.5762901999988,545.2917928666031,545.5995565999765,545.5888296999037,545.5888535999693,545.5995565999765,545.5995565999765,545.5995565999765,550.7155610998161,200,1,[5.125289199873805],[5.125294999917969],365031,001,2024-11-13_13h55.48.200,IntentionalBindingExperiment,2024.1.5,None,2024-11-13 13h55.54.650827 +0530,
0.1,1000,exp,8,1,97,3,550.7309152998496,,550.7161560000386,550.7309152998496,551.7154448998626,551.7154448998626,551.7326575999614,554.3857680000365,space,2.6618167001288384,None,554.3861918998882,554.4853177664957,554.7989654999692,554.7893087998964,554.7893387000076,554.7989654999692,554.7989654999692,554.7989654999692,558.240959599847,400,1,[3.4500325000844896],[3.4500388000160456],365031,001,2024-11-13_13h55.48.200,IntentionalBindingExperiment,2024.1.5,None,2024-11-13 13h55.54.650827 +0530,
0.7,1000,exp,8,2,98,11,558.2558738999069,,558.2415526998229,558.2558738999069,559.2570044999011,559.2570044999011,559.2570044999011,560.109776899917,space,0.8491619001142681,None,560.1102660999168,560.8254108667063,561.1379571999423,561.1289743999951,561.1290060998872,561.1379571999423,561.1379571999423,561.1379571999423,562.7131711000111,200,1,[1.5826858000364155],[1.5826924999710172],365031,001,2024-11-13_13h55.48.200,IntentionalBindingExperiment,2024.1.5,None,2024-11-13 13h55.54.650827 +0530,
0.1,1000,exp,8,3,99,9,562.7272997999098,,562.7137600998394,562.7272997999098,563.7287881998345,563.7287881998345,563.7287881998345,565.2982315998524,space,1.565469899913296,None,565.2987352998462,565.4138184665392,565.7194411000237,565.7089068000205,565.7089287999552,565.7194411000237,565.7194411000237,565.7194411000237,570.9219525998924,100,1,[5.211738699814305],[5.2117450998630375],365031,001,2024-11-13_13h55.48.200,IntentionalBindingExperiment,2024.1.5,None,2024-11-13 13h55.54.650827 +0530,
0.7,400,unexp,8,4,100,2,570.9365159999579,,570.9225508000236,570.9365159999579,571.9376554999035,571.9376554999035,571.9376554999035,573.9584085999522,space,2.0065374998375773,None,573.9588969999459,574.6740153665344,574.9784338998143,574.9686656999402,574.9686879999936,574.9784338998143,574.9784338998143,574.9784338998143,580.86561229988,300,1,[5.895493300165981],[5.89549980009906],365031,001,2024-11-13_13h55.48.200,IntentionalBindingExperiment,2024.1.5,None,2024-11-13 13h55.54.650827 +0530,
0.4,1000,exp,8,5,101,10,580.8807885998394,,580.8662155999336,580.8807885998394,581.8652388998307,581.8652388998307,581.881950999843,582.918027299922,space,1.03627820010297,None,582.918554399861,583.3335148664812,583.6385897998698,583.6288075998891,583.6288358999882,583.6385897998698,583.6385897998698,583.6385897998698,586.5050991999451,200,1,[2.8749587000347674],[2.8749643999617547],365031,001,2024-11-13_13h55.48.200,IntentionalBindingExperiment,2024.1.5,None,2024-11-13 13h55.54.650827 +0530,
0.4,1000,exp,8,6,102,7,586.5201623998582,,586.5057114998344,586.5201623998582,587.5049667998683,587.5049667998683,587.5213895000052,588.1570804000366,space,0.6477375999093056,None,588.1574287998956,588.5728368666644,588.8794952000026,588.8689005000051,588.8689232999459,588.8794952000026,588.8794952000026,588.8794952000026,593.4316493999213,100,1,[4.561417199904099],[4.561423999955878],365031,001,2024-11-13_13h55.48.200,IntentionalBindingExperiment,2024.1.5,None,2024-11-13 13h55.54.650827 +0530,
0.4,1000,exp,8,7,103,4,593.4448008998297,,593.4322473998182,593.4448008998297,594.4460334000178,594.4460334000178,594.4460334000178,595.4984488999471,space,1.0507996000815183,None,595.4989300998859,595.9140146666361,596.2184729999863,596.2088138000108,596.2088356998283,596.2184729999863,596.2184729999863,596.2184729999863,603.4915754999965,100,1,[7.28142030001618],[7.281426599947736],365031,001,2024-11-13_13h55.48.200,IntentionalBindingExperiment,2024.1.5,None,2024-11-13 13h55.54.650827 +0530,
0.4,400,unexp,8,8,104,1,603.5059654999059,,603.4921599000227,603.5059654999059,604.5067103998736,604.5067103998736,604.5067103998736,605.6762812000234,space,1.1659647000487894,None,605.6766293998808,606.0921392664934,606.4005525999237,606.3888280999381,606.3888581998181,606.4005525999237,606.4005525999237,606.4005525999237,609.1135716999415,200,1,[2.723087300080806],[2.723092000000179],365031,001,2024-11-13_13h55.48.200,IntentionalBindingExperiment,2024.1.5,None,2024-11-13 13h55.54.650827 +0530,
0.1,400,unexp,8,9,105,0,609.1286328998394,,609.1141693999525,609.1286328998394,610.1128855999559,610.1128855999559,610.1295947998296,612.6188611998223,space,2.4899243998806924,None,612.6198317999952,612.7329361665218,613.0383129999973,613.0287956998218,613.0288180999923,613.0383129999973,613.0383129999973,613.0383129999973,615.9221055998933,300,1,[2.891990500036627],[2.8919986998662353],365031,001,2024-11-13_13h55.48.200,IntentionalBindingExperiment,2024.1.5,None,2024-11-13 13h55.54.650827 +0530,
0.1,1000,exp,8,10,106,6,615.9359382998664,,615.9227775000036,615.9359382998664,616.9374698000029,616.9374698000029,616.9374698000029,617.6225923998281,space,0.6826146000530571,None,617.6230470999144,617.7382671666021,618.0478197999764,618.0388479998801,618.0388701998163,618.0478197999764,618.0478197999764,618.0478197999764,620.2263623999897,200,1,[2.186124200001359],[2.186130299931392],365031,001,2024-11-13_13h55.48.200,IntentionalBindingExperiment,2024.1.5,None,2024-11-13 13h55.54.650827 +0530,
0.7,1000,exp,8,11,107,8,620.2405360999983,,620.2269637999125,620.2405360999983,621.2429384998977,621.2429384998977,621.2429384998977,622.4281655999366,space,1.1734193998854607,None,622.4285680998582,623.1442380666888,623.4549922000151,623.4446351998486,623.4446632999461,623.4549922000151,623.4549922000151,623.4549922000151,625.6490936998744,500,1,[2.2027437000069767],[2.202760700136423],365031,001,2024-11-13_13h55.48.200,IntentionalBindingExperiment,2024.1.5,None,2024-11-13 13h55.54.650827 +0530,
0.4,1000,exp,9,0,108,4,625.6634321999736,,625.6505330000073,625.6634321999736,626.6663277999032,626.6663277999032,626.6663277999032,628.7350111999549,space,2.0618241999763995,None,628.7354405999649,629.1509865665032,629.4595796999056,629.4492913999129,629.4493493000045,629.4595796999056,629.4595796999056,629.4595796999056,631.3213664998766,600,1,[1.8698209000285715],[1.8698359001427889],365031,001,2024-11-13_13h55.48.200,IntentionalBindingExperiment,2024.1.5,None,2024-11-13 13h55.54.650827 +0530,
0.4,1000,exp,9,1,109,10,631.3364081999753,,631.3222355998587,631.3364081999753,632.3217521999031,632.3217521999031,632.3378814000171,632.8721890000161,space,0.5458394000306726,None,632.8725666999817,633.272425066509,633.5795455998741,633.5686657000333,633.5686945000198,633.5795455998741,633.5795455998741,633.5795455998741,636.1766667999327,200,1,[2.6063530000392348],[2.606358899967745],365031,001,2024-11-13_13h55.48.200,IntentionalBindingExperiment,2024.1.5,None,2024-11-13 13h55.54.650827 +0530,
0.7,1000,exp,9,2,110,11,636.19204419991,,636.1772578998934,636.19204419991,637.1931087998673,637.1931087998673,637.1931087998673,638.0451708999462,space,0.8357790999580175,None,638.045531099895,638.7448590666211,639.0486959000118,639.0389302000403,639.0389582999051,639.0486959000118,639.0486959000118,639.0486959000118,641.3998082999606,100,1,[2.3594206999987364],[2.35942789982073],365031,001,2024-11-13_13h55.48.200,IntentionalBindingExperiment,2024.1.5,None,2024-11-13 13h55.54.650827 +0530,
0.1,400,unexp,9,3,111,0,641.4140321998857,,641.4004008998163,641.4140321998857,642.4151713999454,642.4151713999454,642.4151713999454,643.5845593998674,space,1.1649086999241263,None,643.5849895998836,643.700350066709,644.0077082999051,643.9993016000371,643.9993256998714,644.0077082999051,644.0077082999051,644.0077082999051,646.405594999902,400,1,[2.404991199960932],[2.404997600009665],365031,001,2024-11-13_13h55.48.200,IntentionalBindingExperiment,2024.1.5,None,2024-11-13 13h55.54.650827 +0530,
0.7,400,unexp,9,4,112,2,646.4198739998974,,646.4062322999816,646.4198739998974,647.4214895998593,647.4214895998593,647.4214895998593,647.9223427998368,space,0.4843782999087125,None,647.9226940998342,648.6225995666503,648.9287467999384,648.9185977999587,648.9186287999619,648.9287467999384,648.9287467999384,648.9287467999384,650.8427913999185,400,1,[1.9226417001336813],[1.922648400068283],365031,001,2024-11-13_13h55.48.200,IntentionalBindingExperiment,2024.1.5,None,2024-11-13 13h55.54.650827 +0530,
0.1,1000,exp,9,5,113,9,650.8581522998866,,650.8434182000346,650.8581522998866,651.8586193998344,651.8586193998344,651.8586193998344,652.8280560998246,space,0.9587290000636131,None,652.8285709999036,652.9435252666628,653.2490790998563,653.2385491998866,653.238571899943,653.2490790998563,653.2490790998563,653.2490790998563,655.8147730999626,200,1,[2.574783700052649],[2.5747901001013815],365031,001,2024-11-13_13h55.48.200,IntentionalBindingExperiment,2024.1.5,None,2024-11-13 13h55.54.650827 +0530,
0.1,1000,exp,9,6,114,6,655.8301952998154,,655.8154184999876,655.8301952998154,656.8147139998619,656.8147139998619,656.8316005999222,657.5663703000173,space,0.7407184999901801,None,657.566741099814,657.6828352665218,657.9882451000158,657.9787417999469,657.9787707999349,657.9882451000158,657.9882451000158,657.9882451000158,662.8069608998485,200,1,[4.826630699913949],[4.826636899961159],365031,001,2024-11-13_13h55.48.200,IntentionalBindingExperiment,2024.1.5,None,2024-11-13 13h55.54.650827 +0530,
0.7,1000,exp,9,7,115,5,662.8210159000009,,662.8075885998551,662.8210159000009,663.822339199949,663.822339199949,663.822339199949,664.9584802000318,space,1.1271825998555869,None,664.9588291998953,665.6742872666257,665.9839681000449,665.9745036999229,665.9745312000159,665.9839681000449,665.9839681000449,665.9839681000449,668.4125004999805,200,1,[2.436469800071791],[2.4364758001174778],365031,001,2024-11-13_13h55.48.200,IntentionalBindingExperiment,2024.1.5,None,2024-11-13 13h55.54.650827 +0530,
0.1,1000,exp,9,8,116,3,668.4275228998158,,668.413124699844,668.4275228998158,669.4287612999324,669.4287612999324,669.4287612999324,670.4313397998922,space,0.99691929994151,None,670.4316824998241,670.5462694666969,670.8570782998577,670.8486264999956,670.8486490999348,670.8570782998577,670.8570782998577,670.8570782998577,676.5724060998764,100,1,[5.722414999967441],[5.722420699894428],365031,001,2024-11-13_13h55.48.200,IntentionalBindingExperiment,2024.1.5,None,2024-11-13 13h55.54.650827 +0530,
0.4,400,unexp,9,9,117,1,676.5862062999513,,676.5729973998386,676.5862062999513,677.5876034998801,677.5876034998801,677.5876034998801,678.606651699869,space,1.0051589000504464,None,678.607102900045,679.0218905665135,679.3284736999776,679.318273199955,679.3182949000038,679.3284736999776,679.3284736999776,679.3284736999776,683.428661899874,200,1,[4.108756000176072],[4.1089189001359046],365031,001,2024-11-13_13h55.48.200,IntentionalBindingExperiment,2024.1.5,None,2024-11-13 13h55.54.650827 +0530,
0.7,1000,exp,9,10,118,8,683.443887299858,,683.4292609000113,683.443887299858,684.528544300003,684.528544300003,684.528544300003,686.0486967999022,space,1.5046990001574159,None,686.0495494999923,686.7644661665583,687.0888269999996,687.0651211999357,687.0651676999405,687.0888269999996,687.0888269999996,687.0888269999996,694.6400484999176,400,1,[7.572683299891651],[7.572694000089541],365031,001,2024-11-13_13h55.48.200,IntentionalBindingExperiment,2024.1.5,None,2024-11-13 13h55.54.650827 +0530,
0.4,1000,exp,9,11,119,7,694.6557942999061,,694.6409281999804,694.6557942999061,695.6411715999711,695.6411715999711,695.6577901998535,696.510701399995,space,0.8674906000960618,None,696.5116300999653,696.9256186665191,697.250655699987,697.2294919998385,697.2295364998281,697.250655699987,697.250655699987,697.250655699987,699.2127145999111,500,1,[1.9809162998571992],[1.9809316999744624],365031,001,2024-11-13_13h55.48.200,IntentionalBindingExperiment,2024.1.5,None,2024-11-13 13h55.54.650827 +0530,
0.4,400,unexp,10,0,120,1,699.2281489998568,,699.2139206000138,699.2281489998568,700.2129206999671,700.2129206999671,700.2297346999403,700.76539519988,space,0.5357412998564541,None,700.7668457999825,701.1803016665547,701.5029450999573,701.4793493999168,701.479409399908,701.5029450999573,701.5029450999573,701.5029450999573,704.6514059000183,409,1,[3.1687530998606235],[3.168761899927631],365031,001,2024-11-13_13h55.48.200,IntentionalBindingExperiment,2024.1.5,None,2024-11-13 13h55.54.650827 +0530,
0.7,1000,exp,10,1,121,5,704.6670301000122,,704.6523184999824,704.6670301000122,705.652093200013,705.652093200013,705.6686038000043,706.1883992999792,space,0.5244335997849703,None,706.1894264998846,706.9045132666981,707.221605299972,707.1987297998276,707.198771599913,707.221605299972,707.221605299972,707.221605299972,710.5748532998841,210,1,[3.373451800085604],[3.3734615999273956],365031,001,2024-11-13_13h55.48.200,IntentionalBindingExperiment,2024.1.5,None,2024-11-13 13h55.54.650827 +0530,
0.7,1000,exp,10,2,122,8,710.5899495999329,,710.575686099939,710.5899495999329,711.5753929000348,711.5753929000348,711.5919425999746,712.5787654998712,space,0.9892591000534594,None,712.5797712998465,713.2944395666166,713.6331867999397,713.6137391999364,713.6137953998987,713.6331867999397,713.6331867999397,713.6331867999397,717.383502200013,500,1,[3.7666943999938667],[3.766706299968064],365031,001,2024-11-13_13h55.48.200,IntentionalBindingExperiment,2024.1.5,None,2024-11-13 13h55.54.650827 +0530,
0.7,400,unexp,10,3,123,2,717.397555799922,,717.384482699912,717.397555799922,718.3991523999721,718.3991523999721,718.3991523999721,719.2698802000377,space,0.8592742998152971,None,719.2709083999507,719.9847188667084,720.2999676000327,720.2882786998525,720.2883033000398,720.2999676000327,720.2999676000327,720.2999676000327,722.9720099999104,400,1,[2.6820561999920756],[2.6820653001777828],365031,001,2024-11-13_13h55.48.200,IntentionalBindingExperiment,2024.1.5,None,2024-11-13 13h55.54.650827 +0530,
0.1,1000,exp,10,4,124,9,722.9874717998318,,722.9728868999518,722.9874717998318,723.9722092999145,723.9722092999145,723.9885922998656,724.9083745998796,space,0.920432899845764,None,724.9093656998593,725.0233032666767,725.3407127999235,725.3189792998601,725.3190301998984,725.3407127999235,725.3407127999235,725.3407127999235,727.2601744998246,200,1,[1.9384219001512975],[1.9384322001133114],365031,001,2024-11-13_13h55.48.200,IntentionalBindingExperiment,2024.1.5,None,2024-11-13 13h55.54.650827 +0530,
0.7,1000,exp,10,5,125,11,727.2753414998297,,727.261098699877,727.2753414998297,728.2601063000038,728.2601063000038,728.2772949000355,729.0612881998532,space,0.7996008000336587,None,729.0616613000166,729.7615939665741,730.0734271998517,730.0593177999835,730.0593532999046,730.0734271998517,730.0734271998517,730.0734271998517,731.4155192999169,200,1,[1.3536164998076856],[1.3536301997955889],365031,001,2024-11-13_13h55.48.200,IntentionalBindingExperiment,2024.1.5,None,2024-11-13 13h55.54.650827 +0530,
0.4,1000,exp,10,6,126,10,731.4302433000412,,731.4168310998939,731.4302433000412,732.4315951999743,732.4315951999743,732.4315951999743,733.1011520000175,space,0.662927099969238,None,733.1021542998496,733.5157225665791,733.830644399859,733.818498800043,733.8185314999428,733.830644399859,733.830644399859,733.830644399859,735.1690549999475,500,1,[1.3485700997989625],[1.3485858999192715],365031,001,2024-11-13_13h55.48.200,IntentionalBindingExperiment,2024.1.5,None,2024-11-13 13h55.54.650827 +0530,
0.4,1000,exp,10,7,127,7,735.1842678999528,,735.1703782000113,735.1842678999528,736.1852288998198,736.1852288998198,736.1852288998198,736.7047449999955,space,0.5130342000629753,None,736.7057184998412,737.1198280666179,737.4424814998638,737.4195546000265,737.4196213998366,737.4424814998638,737.4424814998638,737.4424814998638,739.1224797999021,300,1,[1.7004365001339465],[1.7004451001994312],365031,001,2024-11-13_13h55.48.200,IntentionalBindingExperiment,2024.1.5,None,2024-11-13 13h55.54.650827 +0530,
0.1,1000,exp,10,8,128,6,739.1386040998623,,739.1234337999485,739.1386040998623,740.1233272999525,740.1233272999525,740.1398378999438,742.2442294999491,space,2.1082572999875993,None,742.2451968998648,742.3588239665298,742.6799117999617,742.6593951999675,742.6594420999754,742.6799117999617,742.6799117999617,742.6799117999617,745.0294494000264,200,1,[2.3677481999620795],[2.3677576000336558],365031,001,2024-11-13_13h55.48.200,IntentionalBindingExperiment,2024.1.5,None,2024-11-13 13h55.54.650827 +0530,
0.1,400,unexp,10,9,129,0,745.0450466999318,,745.0303410999477,745.0450466999318,746.0299451998435,746.0299451998435,746.046292899875,747.1167381999549,space,1.0817889999598265,None,747.1181049000006,747.2311836665651,747.5525884998497,747.5293374999892,747.5294064998161,747.5525884998497,747.5525884998497,747.5525884998497,749.3506823999342,100,1,[1.818540500011295],[1.8185560998972505],365031,001,2024-11-13_13h55.48.200,IntentionalBindingExperiment,2024.1.5,None,2024-11-13 13h55.54.650827 +0530,
0.4,1000,exp,10,10,130,4,749.366026799893,,749.351732699899,749.366026799893,750.3513342000078,750.3513342000078,750.367694000015,751.7540733998176,space,1.3875492999795824,None,751.7553000999615,752.1700182664829,752.4791700998321,752.4691137999762,752.4691403999459,752.4791700998321,752.4791700998321,752.4791700998321,754.157080899924,100,1,[1.6863928998354822],[1.6864034999161959],365031,001,2024-11-13_13h55.48.200,IntentionalBindingExperiment,2024.1.5,None,2024-11-13 13h55.54.650827 +0530,
0.1,1000,exp,10,11,131,3,754.1714281998575,,754.1583227999508,754.1714281998575,755.1739552998915,755.1739552998915,755.1739552998915,756.092848500004,space,0.9088581001851708,None,756.0938036998268,756.2074145666013,756.5305351999123,756.5088813998736,756.5089272998739,756.5305351999123,756.5305351999123,756.5305351999123,758.4943976998329,100,1,[1.9832841998431832],[1.9832937999162823],365031,001,2024-11-13_13h55.48.200,IntentionalBindingExperiment,2024.1.5,None,2024-11-13 13h55.54.650827 +0530,
0.1,1000,exp,11,0,132,3,758.5093366999645,,758.4952107998542,758.5093366999645,759.4947154999245,759.4947154999245,759.5115844998509,759.8467057999223,space,0.33582679997198284,None,759.8476408999413,759.9617375666896,760.2808790998533,760.2590436998289,760.2590897998307,760.2808790998533,760.2808790998533,760.2808790998533,761.7650297000073,100,1,[1.5030497000552714],[1.5030594000127167],365031,001,2024-11-13_13h55.48.200,IntentionalBindingExperiment,2024.1.5,None,2024-11-13 13h55.54.650827 +0530,
0.7,1000,exp,11,1,133,8,761.779790799832,,761.7659148999956,761.779790799832,762.7649294999428,762.7649294999428,762.7825038998853,763.8686601999216,space,1.0964929000474513,None,763.8695882000029,764.5835953665121,764.9435004999395,764.904142400017,764.90417899983,764.9435004999395,764.9435004999395,764.9435004999395,768.7052068999037,100,1,[3.7990904999896884],[3.7990981000475585],365031,001,2024-11-13_13h55.48.200,IntentionalBindingExperiment,2024.1.5,None,2024-11-13 13h55.54.650827 +0530,
0.1,1000,exp,11,2,134,6,768.7212845999748,,768.7061085000169,768.7212845999748,769.7059375999961,769.7059375999961,769.7228327998891,770.324633799959,space,0.6067264000885189,None,770.3254529999103,770.4403524664851,770.7609794999007,770.7389456999954,770.7390159999486,770.7609794999007,770.7609794999007,770.7609794999007,772.5098551998381,100,1,[1.7681132000871003],[1.768128199968487],365031,001,2024-11-13_13h55.48.200,IntentionalBindingExperiment,2024.1.5,None,2024-11-13 13h55.54.650827 +0530,
0.7,1000,exp,11,3,135,5,772.5248193000443,,772.5107624998782,772.5248193000443,773.5098438998684,773.5098438998684,773.5266183998901,774.0463502998464,space,0.5315541001036763,None,774.0473759998567,774.7615296666665,775.0802712000441,775.0585496998392,775.0586061000358,775.0802712000441,775.0802712000441,775.0802712000441,776.548682600027,200,1,[1.4871875999961048],[1.487197699956596],365031,001,2024-11-13_13h55.48.200,IntentionalBindingExperiment,2024.1.5,None,2024-11-13 13h55.54.650827 +0530,
0.4,400,unexp,11,4,136,1,776.5628043999895,,776.5494713999797,776.5628043999895,777.5481632000301,777.5481632000301,777.5643577999435,778.3168237998616,space,0.7604773000348359,None,778.3176600998268,778.7323127666643,779.0527674998157,779.0289857999887,779.0290427999571,779.0527674998157,779.0527674998157,779.0527674998157,781.6193544999696,400,1,[2.5875085000880063],[2.5875164999160916],365031,001,2024-11-13_13h55.48.200,IntentionalBindingExperiment,2024.1.5,None,2024-11-13 13h55.54.650827 +0530,
0.7,1000,exp,11,5,137,11,781.6351860000286,,781.6202707998455,781.6351860000286,782.6206884998828,782.6206884998828,782.6367466000374,782.9556559999473,space,0.32128689996898174,None,782.9566528999712,783.6710329666423,783.9915256998502,783.968944999855,783.9690143000335,783.9915256998502,783.9915256998502,783.9915256998502,785.9924361999147,800,1,[2.020474100019783],[2.0204825999680907],365031,001,2024-11-13_13h55.48.200,IntentionalBindingExperiment,2024.1.5,None,2024-11-13 13h55.54.650827 +0530,
0.4,1000,exp,11,6,138,10,786.0065005999058,,785.9933949999977,786.0065005999058,787.0085642000195,787.0085642000195,787.0085642000195,788.0602678998839,space,1.043806100031361,None,788.0608506998979,788.4755423665667,788.7881212998182,788.7785018000286,788.7785281999968,788.7881212998182,788.7881212998182,788.7881212998182,793.0653478000313,300,1,[4.2853419000748545],[4.285349100129679],365031,001,2024-11-13_13h55.48.200,IntentionalBindingExperiment,2024.1.5,None,2024-11-13 13h55.54.650827 +0530,
0.1,1000,exp,11,7,139,9,793.0813610998448,,793.0663111000322,793.0813610998448,794.0662721998524,794.0662721998524,794.0830071999226,795.1124302998651,space,1.006083199987188,None,795.1130987999495,795.2166949664863,795.5407010999043,795.5186675998848,795.5187063999474,795.5407010999043,795.5407010999043,795.5407010999043,799.6240164998453,200,1,[4.098313599824905],[4.098325700033456],365031,001,2024-11-13_13h55.48.200,IntentionalBindingExperiment,2024.1.5,None,2024-11-13 13h55.54.650827 +0530,
0.4,1000,exp,11,8,140,7,799.6385275998618,,799.6253353999928,799.6385275998618,800.6399560000282,800.6399560000282,800.6399560000282,801.2257208998781,space,0.5780278001911938,None,801.2262988998555,801.6400907666577,801.9495806000195,801.938933899859,801.9390473999083,801.9495806000195,801.9495806000195,801.9495806000195,805.4626299999654,200,1,[3.521501800045371],[3.5215135000180453],365031,001,2024-11-13_13h55.48.200,IntentionalBindingExperiment,2024.1.5,None,2024-11-13 13h55.54.650827 +0530,
0.7,400,unexp,11,9,141,2,805.4780828999355,,805.4634956999216,805.4780828999355,806.4630866998341,806.4630866998341,806.4796886998229,806.9836403999943,space,0.5180613999255002,None,806.9845857999753,807.697858466596,808.0209685999434,807.999065999873,807.9991112998687,808.0209685999434,808.0209685999434,808.0209685999434,811.3193271998316,500,1,[3.317926799878478],[3.317938599968329],365031,001,2024-11-13_13h55.48.200,IntentionalBindingExperiment,2024.1.5,None,2024-11-13 13h55.54.650827 +0530,
0.1,400,unexp,11,10,142,0,811.3344397998881,,811.3205285000149,811.3344397998881,812.3194273000117,812.3194273000117,812.3360732998699,813.1892466999125,space,0.8595141998957843,None,813.1902515999973,813.3037099666583,813.6259953000117,813.6045649000444,813.6046128999442,813.6259953000117,813.6259953000117,813.6259953000117,815.8076122000348,600,1,[2.2006508999038488],[2.2006632999982685],365031,001,2024-11-13_13h55.48.200,IntentionalBindingExperiment,2024.1.5,None,2024-11-13 13h55.54.650827 +0530,
0.4,1000,exp,11,11,143,4,815.8230232999194,,815.8092102999799,815.8230232999194,816.8077444999944,816.8077444999944,816.824813199928,817.993885200005,space,1.1826938998419791,None,817.9944366000127,818.4098059666032,818.7305296999402,818.7096365999896,818.7096980998758,818.7305296999402,818.7305296999402,818.7305296999402,820.5630454998463,500,1,[1.8506540001835674],[1.8506658000405878],365031,001,2024-11-13_13h55.48.200,IntentionalBindingExperiment,2024.1.5,None,2024-11-13 13h55.54.650827 +0530,
0.4,1000,exp,12,0,144,10,820.5780499998946,,820.5640634999145,820.5780499998946,821.563208000036,821.563208000036,821.5798380000051,822.3478757999837,space,0.7693637001793832,None,822.3488592999056,822.7640589664845,823.087533300044,823.065114099998,823.065163299907,823.087533300044,823.087533300044,823.087533300044,824.6502959998325,300,1,[1.5830199997872114],[1.5830286999698728],365031,001,2024-11-13_13h55.48.200,IntentionalBindingExperiment,2024.1.5,None,2024-11-13 13h55.54.650827 +0530,
0.7,1000,exp,12,1,145,11,824.6658944999799,,824.6512108999304,824.6658944999799,825.6512372998986,825.6512372998986,825.6676097998861,826.087579799816,space,0.4309492998290807,None,826.0889035,826.8021862665812,827.1208259998821,827.0989981000312,827.0990583000239,827.1208259998821,827.1208259998821,827.1208259998821,829.0054217998404,600,1,[1.903408900136128],[1.9034198999870569],365031,001,2024-11-13_13h55.48.200,IntentionalBindingExperiment,2024.1.5,None,2024-11-13 13h55.54.650827 +0530,
0.7,400,unexp,12,2,146,2,829.0212434998248,,829.0064758998342,829.0212434998248,830.0058310998138,830.0058310998138,830.022159999935,830.3415955000091,space,0.33145310007967055,None,830.3427466999274,831.0570759666773,831.3798517000396,831.3590744999237,831.3591187000275,831.3798517000396,831.3798517000396,831.3798517000396,833.2932597999461,800,1,[1.9320121998898685],[1.9320206998381764],365031,001,2024-11-13_13h55.48.200,IntentionalBindingExperiment,2024.1.5,None,2024-11-13 13h55.54.650827 +0530,
0.7,1000,exp,12,3,147,5,833.308607300045,,833.2940765998792,833.308607300045,834.2937533999793,834.2937533999793,834.3105576999951,834.6294793998823,space,0.32859050016850233,None,834.6304897998925,835.3449908665536,835.6688643000089,835.6490533999167,835.6490972000174,835.6688643000089,835.6688643000089,835.6688643000089,837.6815682998858,900,1,[2.0303657001350075],[2.0303740999661386],365031,001,2024-11-13_13h55.48.200,IntentionalBindingExperiment,2024.1.5,None,2024-11-13 13h55.54.650827 +0530,
0.1,1000,exp,12,4,148,6,837.6967770999763,,837.6824028999545,837.6967770999763,838.6820328999311,838.6820328999311,838.6985255000181,839.3507041998673,space,0.6661427000071853,None,839.3515584999695,839.465907866663,839.7895642998628,839.7690461999737,839.7690929998644,839.7895642998628,839.7895642998628,839.7895642998628,841.7029134999029,100,1,[1.9316589999943972],[1.9316698000766337],365031,001,2024-11-13_13h55.48.200,IntentionalBindingExperiment,2024.1.5,None,2024-11-13 13h55.54.650827 +0530,
0.1,1000,exp,12,5,149,3,841.7175091998652,,841.7037827998865,841.7175091998652,842.7030464999843,842.7030464999843,842.7204410999548,843.5882051999215,space,0.8761872998438776,None,843.5890261998866,843.7037983665398,844.0308562000282,844.0088962998707,844.0089511999395,844.0308562000282,844.0308562000282,844.0308562000282,845.5071363998577,100,1,[1.4959892998449504],[1.4960033998358995],365031,001,2024-11-13_13h55.48.200,IntentionalBindingExperiment,2024.1.5,None,2024-11-13 13h55.54.650827 +0530,
0.4,1000,exp,12,6,150,4,845.5219928999431,,845.5082845999859,845.5219928999431,846.5073927999474,846.5073927999474,846.5238892999478,847.1102601999883,space,0.5913306998554617,None,847.1119029999245,847.5250726666457,847.8487328998744,847.8292545999866,847.8293005998712,847.8487328998744,847.8487328998744,847.8487328998744,850.6627449998632,100,1,[2.831064600031823],[2.8310779999010265],365031,001,2024-11-13_13h55.48.200,IntentionalBindingExperiment,2024.1.5,None,2024-11-13 13h55.54.650827 +0530,
0.4,1000,exp,12,7,151,7,850.6779628999066,,850.6635845999699,850.6779628999066,851.6628695998807,851.6628695998807,851.679611499887,852.0147893999238,space,0.33517020009458065,None,852.0163292998914,852.430768966504,852.7509544999339,852.7286822998431,852.728742999956,852.7509544999339,852.7509544999339,852.7509544999339,854.2667298999149,100,1,[1.535246100043878],[1.5352562998887151],365031,001,2024-11-13_13h55.48.200,IntentionalBindingExperiment,2024.1.5,None,2024-11-13 13h55.54.650827 +0530,
0.1,1000,exp,12,8,152,9,854.2817147998139,,854.2680156000424,854.2817147998139,855.266555499984,855.266555499984,855.2841783999465,855.5859987998847,space,0.31298009981401265,None,855.5872486999724,855.7007121665558,856.0206624998245,855.9989544998389,855.9990155999549,856.0206624998245,856.0206624998245,856.0206624998245,857.6708794999868,100,1,[1.668986399890855],[1.668997700093314],365031,001,2024-11-13_13h55.48.200,IntentionalBindingExperiment,2024.1.5,None,2024-11-13 13h55.54.650827 +0530,
0.7,1000,exp,12,9,153,8,857.6848068998661,,857.6718113999814,857.6848068998661,858.6873139999807,858.6873139999807,858.6873139999807,858.9730620000046,space,0.271661400096491,None,858.9739295998588,859.6889493666279,860.0093133999035,859.9886994999833,859.9887440998573,860.0093133999035,860.0093133999035,860.0093133999035,861.4085042998195,100,1,[1.417126800166443],[1.4171398000326008],365031,001,2024-11-13_13h55.48.200,IntentionalBindingExperiment,2024.1.5,None,2024-11-13 13h55.54.650827 +0530,
0.4,400,unexp,12,10,154,1,861.4234988000244,,861.4099532000255,861.4234988000244,862.4081845998298,862.4081845998298,862.4246530998498,862.7611365998164,space,0.34837010013870895,None,862.762105199974,863.1755337666875,863.4965806999244,863.4794755999465,863.479532700032,863.4965806999244,863.4965806999244,863.4965806999244,867.1992055999581,300,1,[3.7171306000091136],[3.717145800124854],365031,001,2024-11-13_13h55.48.200,IntentionalBindingExperiment,2024.1.5,None,2024-11-13 13h55.54.650827 +0530,
0.1,400,unexp,12,11,155,0,867.2125470000319,,867.2000131998211,867.2125470000319,868.2145489999093,868.2145489999093,868.2145489999093,868.633719699923,space,0.4091141000390053,None,868.6349503998645,868.7485791666588,869.0707350999583,869.0490051999222,869.0490665999241,869.0707350999583,869.0707350999583,869.0707350999583,870.7510144000407,200,1,[1.6997260001953691],[1.6997335001360625],365031,001,2024-11-13_13h55.48.200,IntentionalBindingExperiment,2024.1.5,None,2024-11-13 13h55.54.650827 +0530,
0.7,1000,exp,13,0,156,5,870.7666315999813,,870.7518811000045,870.7666315999813,871.751828599954,871.751828599954,871.7679870999418,873.1718961999286,space,1.4183275999967009,None,873.17260969989,873.8869308666947,874.2104438999668,874.1890253999736,874.189069799846,874.2104438999668,874.2104438999668,874.2104438999668,877.7590029998682,400,1,[3.567815199960023],[3.567831499967724],365031,001,2024-11-13_13h55.48.200,IntentionalBindingExperiment,2024.1.5,None,2024-11-13 13h55.54.650827 +0530,
0.1,1000,exp,13,1,157,3,877.7738935998641,,877.7598172000144,877.7738935998641,878.7595444000326,878.7595444000326,878.775969499955,879.4292041000444,space,0.6637120998930186,None,879.4301352999173,879.543494666523,879.8595388999674,879.8386331999209,879.8386750000063,879.8595388999674,879.8595388999674,879.8595388999674,881.6305960000027,300,1,[1.789485199842602],[1.789493199903518],365031,001,2024-11-13_13h55.48.200,IntentionalBindingExperiment,2024.1.5,None,2024-11-13 13h55.54.650827 +0530,
0.1,1000,exp,13,2,158,6,881.6455410998315,,881.6315005999058,881.6455410998315,882.6307558999397,882.6307558999397,882.6474635999184,885.1511222999543,space,2.5096443998627365,None,885.1521198998671,885.2664291666044,885.59017640003,885.5690230999608,885.5690846999642,885.59017640003,885.59017640003,885.59017640003,886.9859553000424,100,1,[1.414638000074774],[1.414650799939409],365031,001,2024-11-13_13h55.48.200,IntentionalBindingExperiment,2024.1.5,None,2024-11-13 13h55.54.650827 +0530,
0.7,1000,exp,13,3,159,8,887.0015512998216,,886.9869705999736,887.0015512998216,887.9862072998658,887.9862072998658,888.0029912998434,888.3541458998807,space,0.3574391999281943,None,888.3546366000082,889.0546966666045,889.379052199889,889.3589748998638,889.3590394998901,889.379052199889,889.379052199889,889.379052199889,891.2567201999482,100,1,[1.8955713999457657],[1.8955781999975443],365031,001,2024-11-13_13h55.48.200,IntentionalBindingExperiment,2024.1.5,None,2024-11-13 13h55.54.650827 +0530,
0.4,1000,exp,13,4,160,4,891.2723970999941,,891.2575673998799,891.2723970999941,892.2574757998809,892.2574757998809,892.2743771998212,893.0770183999557,space,0.8080398999154568,None,893.0783369999845,893.4924223665769,893.8122459000442,893.7894315999001,893.7894896999933,893.8122459000442,893.8122459000442,893.8122459000442,895.2118410000112,100,1,[1.4154380999971181],[1.4154485000763088],365031,001,2024-11-13_13h55.48.200,IntentionalBindingExperiment,2024.1.5,None,2024-11-13 13h55.54.650827 +0530,
0.7,400,unexp,13,5,161,2,895.2269128998742,,895.2128949998878,895.2269128998742,896.2121661999263,896.2121661999263,896.228479999816,896.5306173998397,space,0.3057750998996198,None,896.5315780998208,897.2462263666714,897.5734451999888,897.5487412000075,897.5487881000154,897.5734451999888,897.5734451999888,897.5734451999888,899.6166761999484,300,1,[2.0654943000990897],[2.0655072000809014],365031,001,2024-11-13_13h55.48.200,IntentionalBindingExperiment,2024.1.5,None,2024-11-13 13h55.54.650827 +0530,
0.4,1000,exp,13,6,162,7,899.6323814999778,,899.6182558999863,899.6323814999778,900.6167536999565,900.6167536999565,900.6332806998398,901.11907409993,space,0.48622369999065995,None,901.1199330999516,901.5353505665591,901.8617506998125,901.8385540999006,901.8385987000074,901.8617506998125,901.8617506998125,901.8617506998125,903.2387041999027,200,1,[1.3977455999702215],[1.3977602999657393],365031,001,2024-11-13_13h55.48.200,IntentionalBindingExperiment,2024.1.5,None,2024-11-13 13h55.54.650827 +0530,
0.1,1000,exp,13,7,163,9,903.2523349998519,,903.2401429999154,903.2523349998519,904.254003399983,904.254003399983,904.254003399983,904.8238603998907,space,0.5656242000404745,None,904.8248148998246,904.9377144666544,905.2609192000236,905.2388937999494,905.238939399831,905.2609192000236,905.2609192000236,905.2609192000236,907.1416537000332,100,1,[1.9002384999766946],[1.9002493000589311],365031,001,2024-11-13_13h55.48.200,IntentionalBindingExperiment,2024.1.5,None,2024-11-13 13h55.54.650827 +0530,
0.4,1000,exp,13,8,164,10,907.1567687999923,,907.1427000998519,907.1567687999923,908.1420745998621,908.1420745998621,908.1584744998254,909.1112391999923,space,0.9632992998231202,None,909.1122001998592,909.5263603665555,909.8490307999309,909.8286244999617,909.8286772000138,909.8490307999309,909.8490307999309,909.8490307999309,911.1300816999283,100,1,[1.2988654000218958],[1.2988781998865306],365031,001,2024-11-13_13h55.48.200,IntentionalBindingExperiment,2024.1.5,None,2024-11-13 13h55.54.650827 +0530,
0.1,400,unexp,13,9,165,0,911.1449782999698,,911.1310530998744,911.1449782999698,912.14673519996,912.14673519996,912.14673519996,913.6150656000245,space,1.4547498000320047,None,913.6156378998421,913.7154006665262,914.0326423998922,914.0188394999132,914.0188837999012,914.0326423998922,914.0326423998922,914.0326423998922,915.3513974000234,200,1,[1.330490600084886],[1.330513299908489],365031,001,2024-11-13_13h55.48.200,IntentionalBindingExperiment,2024.1.5,None,2024-11-13 13h55.54.650827 +0530,
0.7,1000,exp,13,10,166,11,915.3665167998988,,915.3525006999262,915.3665167998988,916.3682122000027,916.3682122000027,916.3682122000027,916.7865776999388,space,0.4066898000892252,None,916.7876179998275,917.5018927665117,917.8192922999151,917.7991041999776,917.7991618998349,917.8192922999151,917.8192922999151,917.8192922999151,919.1886485998984,300,1,[1.3836619001813233],[1.3836705000139773],365031,001,2024-11-13_13h55.48.200,IntentionalBindingExperiment,2024.1.5,None,2024-11-13 13h55.54.650827 +0530,
0.4,400,unexp,13,11,167,1,919.2034758999944,,919.1896195998415,919.2034758999944,920.1885221998673,920.1885221998673,920.2050615998451,921.3249119999819,space,1.1254497000481933,None,921.3259107000194,921.7398618665213,922.0622999998741,922.0395515998825,922.0396208998282,922.0622999998741,922.0622999998741,922.0622999998741,924.6447077000048,400 ,1,[2.602755800122395],[2.602764999959618],365031,001,2024-11-13_13h55.48.200,IntentionalBindingExperiment,2024.1.5,None,2024-11-13 13h55.54.650827 +0530,
0.4,400,unexp,14,0,168,1,924.6592679999303,,924.645597799914,924.6592679999303,925.6445946998429,925.6445946998429,925.6615108998958,926.3135571000166,space,0.6536067998968065,None,926.314372099936,926.7289933665345,927.0503715998493,927.0300359998364,927.0300775999203,927.0503715998493,927.0503715998493,927.0503715998493,928.4326563999057,200,1,[1.3973796002101153],[1.397394600091502],365031,001,2024-11-13_13h55.48.200,IntentionalBindingExperiment,2024.1.5,None,2024-11-13 13h55.54.650827 +0530,
0.7,1000,exp,14,1,169,11,928.4471596998628,,928.433922199998,928.4471596998628,929.4488686998375,929.4488686998375,929.4488686998375,929.7842229998205,space,0.330782099859789,None,929.7851652998943,930.4999828665207,930.8205501998309,930.7998245998751,930.7998726000078,930.8205501998309,930.8205501998309,930.8205501998309,932.7370644998737,300,1,[1.9348375000990927],[1.9348578001372516],365031,001,2024-11-13_13h55.48.200,IntentionalBindingExperiment,2024.1.5,None,2024-11-13 13h55.54.650827 +0530,
0.1,400,unexp,14,2,170,0,932.751858699834,,932.7378741998691,932.751858699834,933.7365266999695,933.7365266999695,933.7533082000446,934.4726600998547,space,0.722014999948442,None,934.4736716998741,934.5879038666064,934.9099718998186,934.8890174999833,934.8890628998633,934.9099718998186,934.9099718998186,934.9099718998186,937.0087831998244,100,1,[2.117134200176224],[2.11714670015499],365031,001,2024-11-13_13h55.48.200,IntentionalBindingExperiment,2024.1.5,None,2024-11-13 13h55.54.650827 +0530,
0.7,1000,exp,14,3,171,8,937.0231153999921,,937.0095800999552,937.0231153999921,938.0083457999863,938.0083457999863,938.0248421998695,938.461352400016,space,0.44828610005788505,None,938.4623239999637,939.176059866619,939.4957071000244,939.4791057000402,939.4791459999979,939.4957071000244,939.4957071000244,939.4957071000244,941.3133908999152,200,1,[1.8322789000812918],[1.8322894000448287],365031,001,2024-11-13_13h55.48.200,IntentionalBindingExperiment,2024.1.5,None,2024-11-13 13h55.54.650827 +0530,
0.4,1000,exp,14,4,172,4,941.3277720999904,,941.3141955998726,941.3277720999904,942.3300963998772,942.3300963998772,942.3300963998772,943.0493520998862,space,0.7044808999635279,None,943.0503132999875,943.4639154666258,943.7788333999924,943.7584408000112,943.7584811998531,943.7788333999924,943.7788333999924,943.7788333999924,947.3696659000125,100,1,[3.608714999863878],[3.6087257999461144],365031,001,2024-11-13_13h55.48.200,IntentionalBindingExperiment,2024.1.5,None,2024-11-13 13h55.54.650827 +0530,
0.1,1000,exp,14,5,173,6,947.3846044000238,,947.3708244999871,947.3846044000238,948.3700567998458,948.3700567998458,948.3860337999649,949.021035999991,space,0.6147431000135839,None,949.0216683000326,949.1372384667086,949.4472164998297,949.4388558999635,949.4388782999013,949.4472164998297,949.4472164998297,949.4472164998297,951.5898462999612,100,1,[2.149556600023061],[2.1495662999805063],365031,001,2024-11-13_13h55.48.200,IntentionalBindingExperiment,2024.1.5,None,2024-11-13 13h55.54.650827 +0530,
0.4,1000,exp,14,6,174,7,951.6057640998624,,951.5912150000222,951.6057640998624,952.5910028999206,952.5910028999206,952.6075110000093,953.3605509998742,space,0.7595242999959737,None,953.3612491998356,953.7751066666717,954.0998527000193,954.0789881998207,954.0790313000325,954.0998527000193,954.0998527000193,954.0998527000193,955.7788791998755,100,1,[1.697675900068134],[1.6976849001366645],365031,001,2024-11-13_13h55.48.200,IntentionalBindingExperiment,2024.1.5,None,2024-11-13 13h55.54.650827 +0530,
0.1,1000,exp,14,7,175,9,955.7939224999864,,955.7797658999916,955.7939224999864,956.7786593998317,956.7786593998317,956.795370799955,957.3481429999229,space,0.562900000018999,None,957.3490650998428,957.4624391666769,957.7797574999277,957.7586172998417,957.7586713999044,957.7797574999277,957.7797574999277,957.7797574999277,959.5321319999639,100,1,[1.7705529001541436],[1.7705670001450926],365031,001,2024-11-13_13h55.48.200,IntentionalBindingExperiment,2024.1.5,None,2024-11-13 13h55.54.650827 +0530,
0.7,1000,exp,14,8,176,5,959.5475339998957,,959.5330939998385,959.5475339998957,960.5327152998652,960.5327152998652,960.5494186999276,961.3361593999434,space,0.7966252998448908,None,961.3371476000175,962.0512512666794,962.37369999988,962.3518073000014,962.3518713999074,962.37369999988,962.37369999988,962.37369999988,964.5885594999418,300,1,[2.234093999955803],[2.2341093998402357],365031,001,2024-11-13_13h55.48.200,IntentionalBindingExperiment,2024.1.5,None,2024-11-13 13h55.54.650827 +0530,
0.1,1000,exp,14,9,177,3,964.6034716998693,,964.5894615999423,964.6034716998693,965.5885560000315,965.5885560000315,965.6050994999241,966.5742990998551,space,0.9716767999343574,None,966.5750815998763,966.6897447666308,967.0099469998386,966.9894001998473,966.9894671998918,967.0099469998386,967.0099469998386,967.0099469998386,969.4272858998738,200,1,[2.435298099881038],[2.435310499975458],365031,001,2024-11-13_13h55.48.200,IntentionalBindingExperiment,2024.1.5,None,2024-11-13 13h55.54.650827 +0530,
0.4,1000,exp,14,10,178,10,969.4421951998957,,969.428724099882,969.4421951998957,970.4270637000445,970.4270637000445,970.4438063998241,971.4977648998611,space,1.068504499970004,None,971.498770999955,971.9120507666996,972.2330962999258,972.2090032999404,972.209062299924,972.2330962999258,972.2330962999258,972.2330962999258,973.9982874998823,100,1,[1.786299099912867],[1.78631139989011],365031,001,2024-11-13_13h55.48.200,IntentionalBindingExperiment,2024.1.5,None,2024-11-13 13h55.54.650827 +0530,
0.7,400,unexp,14,11,179,2,974.0139727999922,,973.9992539999075,974.0139727999922,974.9988690998871,974.9988690998871,975.0153826000169,975.8680346999317,space,0.8531177002005279,None,975.8691898998804,976.5840821664935,976.9067895000335,976.8890919999685,976.8891349998303,976.9067895000335,976.9067895000335,976.9067895000335,979.089023699984,200,1,[2.197064199950546],[2.1970796999521554],365031,001,2024-11-13_13h55.48.200,IntentionalBindingExperiment,2024.1.5,None,2024-11-13 13h55.54.650827 +0530,
0.7,1000,exp,15,0,180,5,979.1033087999094,,979.0907868000213,979.1033087999094,980.104263999965,980.104263999965,980.104263999965,980.6572406999767,space,0.5507537999656051,None,980.658234299859,981.3731377665574,981.6916205999441,981.6689316998236,981.6689828999806,981.6916205999441,981.6916205999441,981.6916205999441,983.6252993999515,100 ,1,[1.9541680000256747],[1.9541750000789762],365031,001,2024-11-13_13h55.48.200,IntentionalBindingExperiment,2024.1.5,None,2024-11-13 13h55.54.650827 +0530,
0.1,1000,exp,15,1,181,6,983.6413669998292,,983.6261509000324,983.6413669998292,984.6268456999678,984.6268456999678,984.6430102000013,985.829442499904,space,1.190368999959901,None,985.8305841998663,985.9437979665274,986.2667666999623,986.2444451998454,986.2444899999537,986.2667666999623,986.2667666999623,986.2667666999623,987.9310143999755,100,1,[1.6840133001096547],[1.684024500194937],365031,001,2024-11-13_13h55.48.200,IntentionalBindingExperiment,2024.1.5,None,2024-11-13 13h55.54.650827 +0530,
0.4,1000,exp,15,2,182,4,987.9458119999617,,987.9317883998156,987.9458119999617,988.9308877999429,988.9308877999429,988.9473445999902,989.6843500998802,space,0.7445785999298096,None,989.6853380999528,990.0987261667071,990.4206438998226,990.3990936998744,990.3991576000117,990.4206438998226,990.4206438998226,990.4206438998226,991.8519138998818,200,1,[1.4503399999812245],[1.450355000095442],365031,001,2024-11-13_13h55.48.200,IntentionalBindingExperiment,2024.1.5,None,2024-11-13 13h55.54.650827 +0530,
0.7,1000,exp,15,3,183,8,991.8668684998993,,991.8528638998978,991.8668684998993,992.8519939000253,992.8519939000253,992.8687871999573,994.5066742999479,space,1.6487300998996943,None,994.5075766998343,995.2210643666951,995.542109800037,995.5188761998434,995.5189352999441,995.542109800037,995.542109800037,995.542109800037,997.2906812999863,400,1,[1.7686497999820858],[1.7686597998254001],365031,001,2024-11-13_13h55.48.200,IntentionalBindingExperiment,2024.1.5,None,2024-11-13 13h55.54.650827 +0530,
0.4,1000,exp,15,4,184,7,997.3060816999059,,997.2916747999843,997.3060816999059,998.290751399938,998.290751399938,998.3072186999489,999.1270876999479,space,0.8222430001478642,None,999.1284015998244,999.5424482667042,999.8609686000273,999.8385842998978,999.838640099857,999.8609686000273,999.8609686000273,999.8609686000273,1001.3629962999839,300,1,[1.521219399990514],[1.521229499951005],365031,001,2024-11-13_13h55.48.200,IntentionalBindingExperiment,2024.1.5,None,2024-11-13 13h55.54.650827 +0530,
0.1,1000,exp,15,5,185,3,1001.3777175999712,,1001.3638681999873,1001.3777175999712,1002.3793516999576,1002.3793516999576,1002.3793516999576,1002.9152205998544,space,0.5334633998572826,None,1002.9162073000334,1003.02980136668,1003.3568879000377,1003.3292314000428,1003.3293027000036,1003.3568879000377,1003.3568879000377,1003.3568879000377,1005.2000902998261,100,1,[1.8681723999325186],[1.868182900128886],365031,001,2024-11-13_13h55.48.200,IntentionalBindingExperiment,2024.1.5,None,2024-11-13 13h55.54.650827 +0530,
0.4,1000,exp,15,6,186,10,1005.2150548000354,,1005.200793699827,1005.2150548000354,1006.2162315000314,1006.2162315000314,1006.2162315000314,1006.7678304000292,space,0.5375576999504119,None,1006.7681715998333,1007.1840927666674,1007.4938033998478,1007.4845600000117,1007.4845837999601,1007.4938033998478,1007.4938033998478,1007.4938033998478,1009.6881317999214,200,1,[2.201985399937257],[2.2019907999783754],365031,001,2024-11-13_13h55.48.200,IntentionalBindingExperiment,2024.1.5,None,2024-11-13 13h55.54.650827 +0530,
0.1,1000,exp,15,7,187,9,1009.7034370999318,,1009.6887763999403,1009.7034370999318,1010.6881022998132,1010.6881022998132,1010.7049493000377,1011.4900231999345,space,0.7928436000365764,None,1011.4904791999143,1011.6059541665638,1011.9173194998875,1011.9086406000424,1011.9086618998554,1011.9173194998875,1011.9173194998875,1011.9173194998875,1014.1265312999021,200,1,[2.216439199866727],[2.216445499798283],365031,001,2024-11-13_13h55.48.200,IntentionalBindingExperiment,2024.1.5,None,2024-11-13 13h55.54.650827 +0530,
0.1,400,unexp,15,8,188,0,1014.141716899816,,1014.1271389999893,1014.141716899816,1015.1425795999821,1015.1425795999821,1015.1425795999821,1015.9616353998426,space,0.8145800000056624,None,1015.9620999998879,1016.0773149666531,1016.3878193998244,1016.3786503998563,1016.3786797998473,1016.3878193998244,1016.3878193998244,1016.3878193998244,1020.2507350998931,400,1,[3.8707738001830876],[3.8707801999989897],365031,001,2024-11-13_13h55.48.200,IntentionalBindingExperiment,2024.1.5,None,2024-11-13 13h55.54.650827 +0530,
0.4,400,unexp,15,9,189,1,1020.2648924998939,,1020.2513681999408,1020.2648924998939,1021.2661156998947,1021.2661156998947,1021.2661156998947,1022.0018783998676,space,0.7208143000025302,None,1022.0023119999096,1022.4172386665052,1022.7275028999429,1022.7187106998172,1022.7187315998599,1022.7275028999429,1022.7275028999429,1022.7275028999429,1026.339380200021,300,1,[3.6192453000694513],[3.6192507001105696],365031,001,2024-11-13_13h55.48.200,IntentionalBindingExperiment,2024.1.5,None,2024-11-13 13h55.54.650827 +0530,
0.7,1000,exp,15,10,190,11,1026.35466740001,,1026.340022499906,1026.35466740001,1027.3400445999578,1027.3400445999578,1027.3561137998477,1027.791585699888,space,0.44808619981631637,None,1027.7919289998244,1028.5077090666784,1028.8179996998515,1028.808251600014,1028.8082838000264,1028.8179996998515,1028.8179996998515,1028.8179996998515,1030.2437799999025,100,1,[1.4339711999054998],[1.4339773999527097],365031,001,2024-11-13_13h55.48.200,IntentionalBindingExperiment,2024.1.5,None,2024-11-13 13h55.54.650827 +0530,
0.7,400,unexp,15,11,191,2,1030.2594874999486,,1030.2443727999926,1030.2594874999486,1031.2440088000149,1031.2440088000149,1031.2603781998623,1032.012765799882,space,0.7519195000641048,None,1032.0133682999294,1032.7286568666498,1033.038166000042,1033.028563800035,1033.0286307998467,1033.038166000042,1033.038166000042,1033.038166000042,1036.6509275999852,300,1,[3.6207900000736117],[3.620800100034103],365031,001,2024-11-13_13h55.48.200,IntentionalBindingExperiment,2024.1.5,None,2024-11-13 13h55.54.650827 +0530,
0.4,1000,exp,16,0,192,10,1036.6661385998596,,1036.6515966998413,1036.6661385998596,1037.6508106000256,1037.6508106000256,1037.6672322000377,1038.403062599944,space,0.7361924999859184,None,1038.4036383000202,1038.818725266556,1039.1281950999983,1039.1184616999235,1039.1184857999906,1039.1281950999983,1039.1281950999983,1039.1281950999983,1041.4732643000316,400,1,[2.3534180000424385],[2.3534244000911713],365031,001,2024-11-13_13h55.48.200,IntentionalBindingExperiment,2024.1.5,None,2024-11-13 13h55.54.650827 +0530,
0.1,1000,exp,16,1,193,9,1041.4884803998284,,1041.4739130998496,1041.4884803998284,1042.4728377999272,1042.4728377999272,1042.4895995999686,1042.8914846999105,space,0.4131093001924455,None,1042.8919656998478,1043.006882566555,1043.3184165998828,1043.3082934999838,1043.308330599917,1043.3184165998828,1043.3184165998828,1043.3184165998828,1046.161740399897,100,1,[2.8517791000194848],[2.8517843999434263],365031,001,2024-11-13_13h55.48.200,IntentionalBindingExperiment,2024.1.5,None,2024-11-13 13h55.54.650827 +0530,
0.4,1000,exp,16,2,194,4,1046.1771249999292,,1046.1623306998517,1046.1771249999292,1047.1618068998214,1047.1618068998214,1047.1783880998846,1048.1640651000198,space,0.9858645000495017,None,1048.164413999999,1048.579465266612,1048.8876855999697,1048.878780500032,1048.8788037998602,1048.8876855999697,1048.8876855999697,1048.8876855999697,1053.4194634999149,100,1,[4.539268099935725],[4.539276199880987],365031,001,2024-11-13_13h55.48.200,IntentionalBindingExperiment,2024.1.5,None,2024-11-13 13h55.54.650827 +0530,
0.7,1000,exp,16,3,195,11,1053.4350242998917,,1053.4201195000205,1053.4350242998917,1054.4195187999867,1054.4195187999867,1054.4361678999849,1054.80463030003,space,0.3824153000023216,None,1054.8050255000126,1055.521080466515,1055.8288954999298,1055.8189462998416,1055.8190134000033,1055.8288954999298,1055.8288954999298,1055.8288954999298,1057.2401791999582,200,1,[1.4191513999830931],[1.4191562000196427],365031,001,2024-11-13_13h55.48.200,IntentionalBindingExperiment,2024.1.5,None,2024-11-13 13h55.54.650827 +0530,
0.1,400,unexp,16,4,196,0,1057.255753400037,,1057.2407857000362,1057.255753400037,1058.2406309000216,1058.2406309000216,1058.2568963998929,1059.0759091000073,space,0.8290860999841243,None,1059.0762529999483,1059.1915010666164,1059.4991748998873,1059.4883405000437,1059.488375699846,1059.4991748998873,1059.4991748998873,1059.4991748998873,1061.0944812998641,100,1,[1.6044085000175983],[1.604413899825886],365031,001,2024-11-13_13h55.48.200,IntentionalBindingExperiment,2024.1.5,None,2024-11-13 13h55.54.650827 +0530,
